File: Cell_8_GEIS.csv
SOC [%],Voltage [V],Frequency [Hz],Re(Ztot) [Ohm],-Im(Ztot) [Ohm]
100,1.60516,100003.71,0.104897,-0.115871
100,1.60515,63093.824,0.108566,-0.0648598
100,1.60515,39814.059,0.1046617,-0.0328872
100,1.60515,25116.91,0.111043,-0.00698673
100,1.60515,15847.683,0.116236,0.0129085
100,1.60515,10002.226,0.122305,0.0247394
100,1.60514,6307.73,0.13407,0.0413304
100,1.60514,3981.27,0.1389475,0.05867146
100,1.605129,2510.8,0.149193,0.0812436
100,1.60513,1585.51,0.15994,0.10686
100,1.60512,1000.32,0.168751,0.156064
100,1.605127,631.01,0.176703,0.240011
100,1.60511,398.089,0.19502,0.363109
100,1.60511,251.044,0.215487,0.559981
100,1.60512,158.428,0.260611,0.86052
100,1.60511,100.032,0.352844,1.32843
100,1.60508,63.0823,0.55016,2.028631
100,1.60506,39.8089,0.957082,3.04091
100,1.6049,25.1044,1.78268,4.38785
100,1.604624,15.8576,3.34848,5.88362
100,1.60436,10.0032,5.87513,6.84258
100,1.604,6.31058,8.66064,6.53771
100,1.60372,3.97785,10.65467,5.26463
100,1.60361,2.51367,11.6054,3.85591
100,1.60364,1.58533,11.93759,2.80533
100,1.60367,1.00006,12.01529,2.16788
100,1.60356,0.630905,11.9877,1.84973
100,1.60374,0.397745,12.0243,1.79509
100,1.60359,0.251222,12.0384,1.92362
100,1.60389,0.158607,12.1282,2.214844
100,1.60447,0.10007,12.1992,2.61735
100,1.6067,79433.273,0.109316,-0.0858797
100,1.60619,50122.477,0.107971,-0.0459131
100,1.606,31621.139,0.1105671,-0.0200304
100,1.60591,19948.785,0.1156416,0.00344283
100,1.60585,12590.93,0.118558,0.0203103
100,1.60581,7943.999,0.132816,0.036097
100,1.60577,5011.604,0.133729,0.0474805
100,1.60575,3161.01,0.1493509,0.0701198
100,1.605734,1995.64,0.155607,0.0939771
100,1.60572,1258.79,0.164532,0.137438
100,1.60571,794.238,0.174863,0.196834
100,1.6057,501.444,0.187356,0.296568
100,1.6057,316.316,0.205723,0.450307
100,1.60569,199.553,0.244501,0.692973
100,1.60569,125.846,0.319953,1.07169
100,1.60567,79.4155,0.483302,1.64423
100,1.60564,50.1444,0.845775,2.46721
100,1.60557,31.6296,1.59685,3.54964
100,1.60546,19.9553,2.98756,4.6943
100,1.60526,12.6008,5.06305,5.379777
100,1.60501,7.93953,7.31415,5.15778
100,1.60488,5.00801,9.0271,4.25529
100,1.60478,3.16296,10.05354,3.263674
100,1.60466,1.99553,10.61378,2.48766
100,1.6046,1.25967,10.9075,1.9896
100,1.60449,0.793631,11.0721,1.73359
100,1.6046,0.501541,11.20317,1.67755
100,1.60449,0.3161931,11.30544,1.776525
100,1.60481,0.199339,11.4646,2.01105
100,1.60508,0.125939,11.6333,2.34536
90,1.46502,100003.71,0.124636,-0.127795
90,1.46503,63093.824,0.120169,-0.0763689
90,1.46503,39814.059,0.118211,-0.0465413
90,1.46503,25116.91,0.11841,-0.0257555
90,1.46503,15847.683,0.121297,-0.0113422
90,1.46503,10002.226,0.117444,-0.00612502
90,1.46503,6307.73,0.124122,0.00127266
90,1.46502,3981.27,0.1257918,0.003792712
90,1.46503,2510.8,0.129129,0.0103136
90,1.46503,1585.51,0.130036,0.0112064
90,1.46503,1000.32,0.131367,0.0144381
90,1.46503,631.01,0.138856,0.0161826
90,1.46503,398.089,0.145653,0.0239593
90,1.46503,251.044,0.150822,0.0262508
90,1.46503,158.428,0.156717,0.0366892
90,1.46503,100.032,0.164863,0.0451966
90,1.46504,63.0823,0.176152,0.0586774
90,1.46504,39.8089,0.192409,0.0701788
90,1.46504,25.1044,0.210689,0.0897488
90,1.46504,15.8576,0.237829,0.116084
90,1.46504,10.0032,0.279365,0.132176
90,1.46504,6.31058,0.326325,0.150166
90,1.465039,3.97785,0.375609,0.156417
90,1.46504,2.51367,0.424042,0.156756
90,1.46505,1.58533,0.468659,0.155888
90,1.465059,1.00006,0.50583,0.154206
90,1.46506,0.630905,0.542778,0.156072
90,1.465086,0.397745,0.575251,0.158944
90,1.4651,0.251222,0.610843,0.168803
90,1.46513,0.158607,0.646275,0.180512
90,1.46518,0.10007,0.681208,0.193436
90,1.46504,79433.273,0.123666,-0.101227
90,1.46506,50122.477,0.116211,-0.06114218
90,1.465091,31621.139,0.117064,-0.0372922
90,1.4651,19948.785,0.116563,-0.0188897
90,1.46511,12590.93,0.119296,-0.00950703
90,1.46512,7943.999,0.12275,-0.0016055
90,1.46512,5011.604,0.120298,0.00183817
90,1.46512,3161.01,0.127972,0.00847559
90,1.465127,1995.64,0.128219,0.00917886
90,1.465131,1258.79,0.135719,0.0132969
90,1.46514,794.238,0.136296,0.01891214
90,1.46514,501.444,0.145536,0.0201414
90,1.46515,316.316,0.1458731,0.0238425
90,1.46514,199.553,0.153211,0.0286193
90,1.46515,125.846,0.158412,0.0394633
90,1.46516,79.4155,0.170995,0.0506277
90,1.46516,50.1444,0.183631,0.0642057
90,1.46516,31.6296,0.202333,0.0823409
90,1.46516,19.9553,0.225041,0.100791
90,1.46517,12.6008,0.254388,0.123324
90,1.46516,7.93953,0.302597,0.143555
90,1.46517,5.00801,0.350241,0.154098
90,1.46517,3.16296,0.4039152,0.158156
90,1.46518,1.99553,0.451322,0.157333
90,1.46519,1.25967,0.49166,0.155769
90,1.4652,0.793631,0.531335,0.15652
90,1.46523,0.501541,0.563818,0.156945
90,1.46524,0.3161931,0.5991863,0.166393
90,1.46528,0.199339,0.630775,0.174516
90,1.46532,0.125939,0.665335,0.187846
80,1.42656,100003.71,0.1140398,-0.125956
80,1.42657,63093.824,0.108195,-0.0717924
80,1.42657,39814.059,0.1033873,-0.0452443
80,1.42657,25116.91,0.108994,-0.0253965
80,1.42658,15847.683,0.108935,-0.0114717
80,1.42658,10002.226,0.108113,-0.00790727
80,1.42657,6307.73,0.113543,0.00363942
80,1.42657,3981.27,0.113369,0.00387843
80,1.42657,2510.8,0.116729,0.00612348
80,1.42657,1585.51,0.119562,0.0103313
80,1.42658,1000.32,0.117594,0.012871
80,1.42657,631.01,0.127161,0.0134047
80,1.42658,398.089,0.132319,0.0149211
80,1.42659,251.044,0.134029,0.0174398
80,1.426582,158.428,0.144089,0.0242265
80,1.42658,100.032,0.147698,0.0289345
80,1.42658,63.0823,0.154109,0.0353746
80,1.42659,39.8089,0.1647376,0.0472612
80,1.42659,25.1044,0.175787,0.0593315
80,1.4266,15.8576,0.188646,0.0716152
80,1.426592,10.0032,0.2103323,0.0929011
80,1.4266,6.31058,0.244637,0.116645
80,1.4266,3.97785,0.28656,0.137291
80,1.4266,2.51367,0.335382,0.150248
80,1.42661,1.58533,0.386724,0.156448
80,1.42662,1.00006,0.4321492,0.156967
80,1.42664,0.630905,0.472599,0.156058
80,1.42666,0.397745,0.5092628,0.158568
80,1.42669,0.251222,0.545632,0.16351
80,1.42673,0.158607,0.582668,0.174419
80,1.4268,0.10007,0.619656,0.18561
80,1.42659,79433.273,0.114042,-0.0988696
80,1.42666,50122.477,0.106505,-0.0576148
80,1.42669,31621.139,0.106329,-0.0333596
80,1.4267,19948.785,0.10715,-0.0198671
80,1.42673,12590.93,0.110337,-0.0095686
80,1.42675,7943.999,0.110112,-0.00317466
80,1.42673,5011.604,0.111058,0.000953742
80,1.42674,3161.01,0.118034,0.00833482
80,1.42675,1995.64,0.118841,0.00980745
80,1.42676,1258.79,0.1206318,0.0109618
80,1.42676,794.238,0.123355,0.01288
80,1.42677,501.444,0.129549,0.0148101
80,1.42677,316.316,0.131843,0.01879357
80,1.42678,199.553,0.141502,0.0257041
80,1.42678,125.846,0.147444,0.0291806
80,1.42678,79.4155,0.153438,0.03371574
80,1.42679,50.1444,0.158959,0.039888
80,1.42679,31.6296,0.170626,0.0523176
80,1.42679,19.9553,0.182563,0.0628248
80,1.426796,12.6008,0.20313,0.0839136
80,1.426796,7.93953,0.228957,0.110369
80,1.4268,5.00801,0.26335,0.130503
80,1.42681,3.16296,0.306748,0.148246
80,1.42682,1.99553,0.361655,0.157191
80,1.42683,1.25967,0.411117,0.159617
80,1.42685,0.793631,0.456691,0.1572949
80,1.42687,0.501541,0.495871,0.159692
80,1.4269,0.3161931,0.531296,0.162022
80,1.42693,0.199339,0.568091,0.171442
80,1.42699,0.125939,0.603519,0.181231
70,1.39042,100003.71,0.113092,-0.124011
70,1.39043,63093.824,0.110599,-0.0742559
70,1.39043,39814.059,0.108773,-0.0457695
70,1.39043,25116.91,0.109865,-0.0239427
70,1.39043,15847.683,0.109607,-0.0126099
70,1.39043,10002.226,0.111,-0.00061049
70,1.39042,6307.73,0.114626,0.000938409
70,1.39043,3981.27,0.116619,0.0046349
70,1.390429,2510.8,0.1197795,0.00651087
70,1.39043,1585.51,0.12144,0.0109767
70,1.39043,1000.32,0.123323,0.0140917
70,1.39043,631.01,0.132276,0.0171799
70,1.39043,398.089,0.132494,0.01674
70,1.390433,251.044,0.143033,0.0212266
70,1.39043,158.428,0.146418,0.0260794
70,1.39044,100.032,0.154163,0.0295327
70,1.39044,63.0823,0.160878,0.0332943
70,1.39044,39.8089,0.168837,0.0423998
70,1.39044,25.1044,0.178526,0.0507048
70,1.39044,15.8576,0.192291,0.0706648
70,1.39045,10.0032,0.207252,0.0872605
70,1.39045,6.31058,0.2332927,0.108376
70,1.39045,3.97785,0.268297,0.131868
70,1.39044,2.51367,0.315674,0.159185
70,1.39046,1.58533,0.373136,0.174826
70,1.39047,1.00006,0.429695,0.18023
70,1.39048,0.630905,0.483717,0.181321
70,1.3905,0.397745,0.530517,0.1794
70,1.39052,0.251222,0.575239,0.182644
70,1.39057,0.158607,0.616857,0.188336
70,1.39065,0.10007,0.656866,0.197754
70,1.39056,79433.273,0.111539,-0.0990173
70,1.39058,50122.477,0.10784,-0.0609892
70,1.39058,31621.139,0.1082187,-0.0355696
70,1.3906,19948.785,0.10882,-0.0217171
70,1.39061,12590.93,0.109811,-0.00922524
70,1.39061,7943.999,0.1138911,0.00118119
70,1.39061,5011.604,0.113153,0.0048993
70,1.39062,3161.01,0.117124,0.00627624
70,1.39061,1995.64,0.120566,0.00785119
70,1.39062,1258.79,0.124269,0.0105358
70,1.39063,794.238,0.128102,0.0120354
70,1.39063,501.444,0.13064,0.0181428
70,1.39063,316.316,0.136653,0.0218742
70,1.39064,199.553,0.141408,0.0217676
70,1.39064,125.846,0.15028,0.0254066
70,1.39064,79.4155,0.156943,0.032586
70,1.39065,50.1444,0.16686,0.0367283
70,1.39065,31.6296,0.17237,0.0444687
70,1.39065,19.9553,0.183388,0.0582877
70,1.39065,12.6008,0.201302,0.0761277
70,1.39065,7.93953,0.219436,0.096329
70,1.39065,5.00801,0.247933,0.122086
70,1.390661,3.16296,0.291362,0.148156
70,1.39067,1.99553,0.344923,0.1696
70,1.39068,1.25967,0.402648,0.180004
70,1.3907,0.793631,0.459621,0.182574
70,1.39071,0.501541,0.512204,0.183377
70,1.39075,0.3161931,0.557089,0.182192
70,1.39079,0.199339,0.59837,0.185883
70,1.39082,0.125939,0.63916,0.1952609
60,1.35891,100003.71,0.1191256,-0.126572
60,1.35892,63093.824,0.1138743,-0.073932
60,1.35893,39814.059,0.110233,-0.0424446
60,1.35892,25116.91,0.11121,-0.0274274
60,1.35893,15847.683,0.11479,-0.0132202
60,1.35893,10002.226,0.114403,-0.00235262
60,1.35893,6307.73,0.12041,0.00277791
60,1.35892,3981.27,0.123087,0.00792538
60,1.35893,2510.8,0.126271,0.0106416
60,1.35893,1585.51,0.1304556,0.0132009
60,1.35892,1000.32,0.13505,0.0167639
60,1.35892,631.01,0.135953,0.01671811
60,1.35892,398.089,0.143312,0.0236798
60,1.35893,251.044,0.151075,0.0245738
60,1.35893,158.428,0.160094,0.0239651
60,1.35893,100.032,0.166039,0.0332793
60,1.35892,63.0823,0.174526,0.0399956
60,1.35893,39.8089,0.179828,0.04570647
60,1.35893,25.1044,0.195057,0.0570038
60,1.358936,15.8576,0.207449,0.0662587
60,1.35893,10.0032,0.225535,0.0836891
60,1.35893,6.31058,0.247954,0.1079183
60,1.35895,3.97785,0.279862,0.13825
60,1.35894,2.51367,0.324323,0.1696822
60,1.35894,1.58533,0.385468,0.194974
60,1.35895,1.00006,0.453084,0.21062
60,1.35897,0.630905,0.519316,0.212232
60,1.35898,0.397745,0.580975,0.211737
60,1.35902,0.251222,0.633218,0.208078
60,1.35906,0.158607,0.682791,0.211439
60,1.35911,0.10007,0.729966,0.2169698
60,1.35904,79433.273,0.114486,-0.0970422
60,1.35909,50122.477,0.112509,-0.0580132
60,1.35911,31621.139,0.11255,-0.0318743
60,1.35912,19948.785,0.115632,-0.0160927
60,1.35912,12590.93,0.113936,-0.00826082
60,1.35914,7943.999,0.114889,0.00133938
60,1.35912,5011.604,0.122077,0.00413717
60,1.35912,3161.01,0.125028,0.00982806
60,1.359131,1995.64,0.124421,0.01226408
60,1.35913,1258.79,0.131143,0.0132199
60,1.35913,794.238,0.134879,0.0143465
60,1.35913,501.444,0.14224,0.02072129
60,1.35913,316.316,0.1467758,0.0211522
60,1.35913,199.553,0.151994,0.0237914
60,1.359141,125.846,0.1607894,0.0305202
60,1.35914,79.4155,0.165281,0.0325818
60,1.35914,50.1444,0.175953,0.0396519
60,1.35914,31.6296,0.1880044,0.0477068
60,1.35914,19.9553,0.196053,0.06186793
60,1.35915,12.6008,0.213049,0.07452219
60,1.35915,7.93953,0.23402,0.0954257
60,1.35914,5.00801,0.259783,0.122049
60,1.35914,3.16296,0.299449,0.153205
60,1.35915,1.99553,0.353078,0.183659
60,1.35916,1.25967,0.418695,0.204935
60,1.35917,0.793631,0.489458,0.213057
60,1.35919,0.501541,0.553118,0.213503
60,1.35922,0.3161931,0.609727,0.20939
60,1.35924,0.199339,0.660102,0.21076
60,1.35929,0.125939,0.7071656,0.214017
50,1.33351,100003.71,0.125725,-0.121452
50,1.33352,63093.824,0.120218,-0.074851
50,1.333528,39814.059,0.120036,-0.040149
50,1.33353,25116.91,0.118046,-0.0214839
50,1.33353,15847.683,0.124949,-0.00978423
50,1.33353,10002.226,0.124122,0.00141018
50,1.333528,6307.73,0.1314611,0.00527048
50,1.33352,3981.27,0.136678,0.0102822
50,1.33353,2510.8,0.139944,0.01461852
50,1.33353,1585.51,0.1462806,0.0171211
50,1.33353,1000.32,0.148857,0.018494
50,1.333533,631.01,0.157691,0.0231426
50,1.33353,398.089,0.163323,0.0263347
50,1.33353,251.044,0.170293,0.0252655
50,1.333537,158.428,0.180643,0.0339918
50,1.33354,100.032,0.187552,0.038016
50,1.333537,63.0823,0.19624,0.042923
50,1.333551,39.8089,0.208126,0.0520456
50,1.33354,25.1044,0.225122,0.0600328
50,1.33354,15.8576,0.239811,0.0733562
50,1.333546,10.0032,0.255229,0.093769
50,1.33355,6.31058,0.280423,0.116694
50,1.33355,3.97785,0.309838,0.145373
50,1.33356,2.51367,0.353591,0.190322
50,1.33356,1.58533,0.415054,0.235563
50,1.33357,1.00006,0.499864,0.274122
50,1.33357,0.630905,0.598292,0.297226
50,1.3336,0.397745,0.694115,0.298088
50,1.33362,0.251222,0.777743,0.289612
50,1.33368,0.158607,0.846801,0.278055
50,1.33374,0.10007,0.909948,0.275804
50,1.33408,79433.273,0.126444,-0.102364
50,1.33398,50122.477,0.124972,-0.0587318
50,1.33394,31621.139,0.119272,-0.03184972
50,1.33392,19948.785,0.124035,-0.0173203
50,1.3339,12590.93,0.122855,-0.00232878
50,1.3339,7943.999,0.130187,0.00536486
50,1.33387,5011.604,0.132566,0.00495296
50,1.33386,3161.01,0.135877,0.0117663
50,1.33385,1995.64,0.140836,0.0149648
50,1.33385,1258.79,0.150363,0.0203475
50,1.33385,794.238,0.156133,0.0192306
50,1.33385,501.444,0.161743,0.0256659
50,1.33384,316.316,0.168265,0.026809
50,1.33384,199.553,0.176758,0.0313893
50,1.33384,125.846,0.187927,0.0352894
50,1.33384,79.4155,0.193874,0.0417126
50,1.33384,50.1444,0.205739,0.04991
50,1.33383,31.6296,0.217101,0.0573917
50,1.33384,19.9553,0.234604,0.0649049
50,1.33384,12.6008,0.250123,0.0816324
50,1.33383,7.93953,0.268744,0.101376
50,1.33384,5.00801,0.294334,0.131624
50,1.33384,3.16296,0.329164,0.168767
50,1.33384,1.99553,0.382941,0.211319
50,1.333851,1.25967,0.456995,0.254768
50,1.33385,0.793631,0.551015,0.285563
50,1.333869,0.501541,0.648747,0.294868
50,1.33388,0.3161931,0.738662,0.292089
50,1.33392,0.199339,0.814514,0.281215
50,1.33396,0.125939,0.880826,0.2772066
40,1.30844,100003.71,0.147686,-0.130816
40,1.30846,63093.824,0.143404,-0.0778805
40,1.308459,39814.059,0.141175,-0.0435788
40,1.30847,25116.91,0.142428,-0.0237696
40,1.30845,15847.683,0.145298,-0.00808292
40,1.30847,10002.226,0.148601,0.00247953
40,1.30846,6307.73,0.150799,0.0113867
40,1.30846,3981.27,0.161619,0.0151224
40,1.30846,2510.8,0.168269,0.024789
40,1.30847,1585.51,0.17278,0.0244737
40,1.30847,1000.32,0.180897,0.0254366
40,1.30847,631.01,0.189732,0.0336698
40,1.30846,398.089,0.195678,0.0329728
40,1.30847,251.044,0.207939,0.037981
40,1.30848,158.428,0.220649,0.0387841
40,1.308475,100.032,0.229584,0.0461881
40,1.308476,63.0823,0.2387801,0.0489395
40,1.30848,39.8089,0.253632,0.0583716
40,1.30848,25.1044,0.271144,0.0630316
40,1.30848,15.8576,0.290827,0.0795768
40,1.30848,10.0032,0.307648,0.0970226
40,1.30848,6.31058,0.328847,0.120008
40,1.30849,3.97785,0.357581,0.1513676
40,1.30849,2.51367,0.396796,0.1949178
40,1.308506,1.58533,0.454149,0.250607
40,1.30852,1.00006,0.539668,0.310994
40,1.30854,0.630905,0.653456,0.358794
40,1.30857,0.397745,0.782291,0.379729
40,1.30862,0.251222,0.9047156,0.373317
40,1.30865,0.158607,1.006107,0.355953
40,1.30874,0.10007,1.09161,0.337793
40,1.30842,79433.273,0.140023,-0.102099
40,1.30855,50122.477,0.14037,-0.0584657
40,1.3086,31621.139,0.145056,-0.0311037
40,1.30863,19948.785,0.143998,-0.0181695
40,1.308655,12590.93,0.145433,-0.00424435
40,1.30867,7943.999,0.149676,0.00631235
40,1.30867,5011.604,0.1585443,0.00570157
40,1.30868,3161.01,0.160835,0.0183945
40,1.30869,1995.64,0.167519,0.0246711
40,1.30869,1258.79,0.177356,0.0287973
40,1.3087,794.238,0.182548,0.0269999
40,1.3087,501.444,0.190853,0.0340861
40,1.30871,316.316,0.204379,0.0362842
40,1.30872,199.553,0.215037,0.0355321
40,1.30872,125.846,0.224323,0.0434333
40,1.30872,79.4155,0.235771,0.0480106
40,1.30872,50.1444,0.248662,0.0542441
40,1.30873,31.6296,0.263609,0.0611259
40,1.30873,19.9553,0.277246,0.0741553
40,1.30874,12.6008,0.296718,0.0861279
40,1.30874,7.93953,0.3184897,0.1078791
40,1.308743,5.00801,0.3420724,0.133757
40,1.30876,3.16296,0.373983,0.171398
40,1.308766,1.99553,0.424413,0.223505
40,1.30878,1.25967,0.493579,0.283744
40,1.30879,0.793631,0.594454,0.339976
40,1.30881,0.501541,0.718632,0.37614
40,1.30884,0.3161931,0.847949,0.383817
40,1.3089,0.199339,0.961405,0.368382
40,1.30896,0.125939,1.05549,0.352026
30,1.27188,100003.71,0.190099,-0.130381
30,1.27189,63093.824,0.185499,-0.0759182
30,1.2719,39814.059,0.185759,-0.0438932
30,1.27189,25116.91,0.188909,-0.0220288
30,1.2719,15847.683,0.195611,-0.0047209
30,1.2719,10002.226,0.197083,0.002828323
30,1.27189,6307.73,0.202747,0.0168067
30,1.27189,3981.27,0.210401,0.02178227
30,1.27189,2510.8,0.2170787,0.0298952
30,1.271898,1585.51,0.224611,0.0300813
30,1.2719,1000.32,0.237308,0.0321511
30,1.27189,631.01,0.2469126,0.0364379
30,1.27189,398.089,0.256901,0.0361937
30,1.2719,251.044,0.267624,0.0385718
30,1.27189,158.428,0.286288,0.0474307
30,1.2719,100.032,0.290678,0.0481196
30,1.27191,63.0823,0.303059,0.0544752
30,1.2719,39.8089,0.317087,0.0633844
30,1.2719,25.1044,0.333425,0.071547
30,1.271899,15.8576,0.35511,0.0885482
30,1.27192,10.0032,0.373027,0.0999986
30,1.27192,6.31058,0.396991,0.125955
30,1.2719,3.97785,0.428779,0.155693
30,1.27191,2.51367,0.464286,0.199825
30,1.27192,1.58533,0.514957,0.260094
30,1.27193,1.00006,0.591517,0.334836
30,1.27193,0.630905,0.708012,0.416095
30,1.27196,0.397745,0.862833,0.47518
30,1.27198,0.251222,1.0323,0.492809
30,1.27203,0.158607,1.1868,0.472539
30,1.27211,0.10007,1.31093,0.441012
30,1.27256,79433.273,0.184987,-0.0975236
30,1.27239,50122.477,0.1849941,-0.0558903
30,1.272334,31621.139,0.185797,-0.029088
30,1.27231,19948.785,0.188886,-0.0160618
30,1.27228,12590.93,0.189039,-0.000349981
30,1.27227,7943.999,0.192729,0.0107893
30,1.27225,5011.604,0.20284,0.0161409
30,1.27224,3161.01,0.205912,0.0237318
30,1.27224,1995.64,0.220604,0.026878
30,1.27223,1258.79,0.224814,0.0331831
30,1.27223,794.238,0.238545,0.0341312
30,1.27222,501.444,0.251908,0.0354525
30,1.272222,316.316,0.260656,0.039962
30,1.27222,199.553,0.269908,0.0416588
30,1.27222,125.846,0.28214,0.0445246
30,1.27222,79.4155,0.295047,0.0537119
30,1.27221,50.1444,0.30875,0.0573828
30,1.27221,31.6296,0.322317,0.0632083
30,1.27221,19.9553,0.342703,0.0777944
30,1.27221,12.6008,0.359077,0.0891849
30,1.272209,7.93953,0.385703,0.11292
30,1.27222,5.00801,0.411375,0.138548
30,1.27221,3.16296,0.443862,0.175505
30,1.272205,1.99553,0.485626,0.2272511
30,1.27221,1.25967,0.549261,0.294407
30,1.27222,0.793631,0.644645,0.373989
30,1.27224,0.501541,0.779909,0.44502
30,1.27226,0.3161931,0.946331,0.486588
30,1.2723,0.199339,1.1119,0.485321
30,1.27237,0.125939,1.24897,0.456798
20,1.21675,100003.71,0.272543,-0.123498
20,1.21677,63093.824,0.269569,-0.0724083
20,1.21678,39814.059,0.270166,-0.0389527
20,1.21678,25116.91,0.271926,-0.0149499
20,1.216785,15847.683,0.27877,-0.002405735
20,1.21678,10002.226,0.286511,0.00616325
20,1.21678,6307.73,0.283163,0.0182077
20,1.21678,3981.27,0.302418,0.0160679
20,1.21678,2510.8,0.311022,0.0204084
20,1.21678,1585.51,0.312516,0.02602368
20,1.21679,1000.32,0.321894,0.0264329
20,1.21678,631.01,0.324477,0.02919239
20,1.21679,398.089,0.335171,0.0249953
20,1.21679,251.044,0.344478,0.0318286
20,1.2168,158.428,0.355494,0.0367085
20,1.2168,100.032,0.36017,0.0437139
20,1.21679,63.0823,0.376026,0.0540585
20,1.2168,39.8089,0.390113,0.0625391
20,1.2168,25.1044,0.408503,0.0788199
20,1.21682,15.8576,0.42821,0.0948592
20,1.21681,10.0032,0.448209,0.114349
20,1.21681,6.31058,0.481075,0.136465
20,1.21682,3.97785,0.511529,0.168104
20,1.21684,2.51367,0.549449,0.212392
20,1.21682,1.58533,0.595227,0.275199
20,1.21683,1.00006,0.656788,0.369379
20,1.21687,0.630905,0.747167,0.4963918
20,1.21687,0.397745,0.893884,0.657425
20,1.21694,0.251222,1.12566,0.819412
20,1.21699,0.158607,1.43823,0.925847
20,1.21707,0.10007,1.772692,0.937146
20,1.2168,79433.273,0.268857,-0.0992734
20,1.21706,50122.477,0.270171,-0.0549767
20,1.21712,31621.139,0.273392,-0.0275017
20,1.21714,19948.785,0.2780281,-0.0103376
20,1.21715,12590.93,0.283337,0.004182206
20,1.21716,7943.999,0.291557,0.0124235
20,1.21715,5011.604,0.298828,0.0159842
20,1.217146,3161.01,0.302607,0.0201595
20,1.21715,1995.64,0.311654,0.0227148
20,1.21715,1258.79,0.318161,0.0218247
20,1.21715,794.238,0.324234,0.0275782
20,1.217153,501.444,0.33238,0.0246113
20,1.21715,316.316,0.3365944,0.0304493
20,1.217155,199.553,0.349096,0.0357129
20,1.21716,125.846,0.3589285,0.0443455
20,1.21715,79.4155,0.369047,0.0508301
20,1.21715,50.1444,0.382911,0.0584535
20,1.21716,31.6296,0.394473,0.0695436
20,1.21716,19.9553,0.418427,0.0835786
20,1.21717,12.6008,0.439497,0.101914
20,1.21716,7.93953,0.465836,0.123275
20,1.21715,5.00801,0.497725,0.153331
20,1.21718,3.16296,0.53138,0.189541
20,1.21718,1.99553,0.572641,0.242345
20,1.21719,1.25967,0.621556,0.319648
20,1.21718,0.793631,0.69646,0.430225
20,1.21721,0.501541,0.813073,0.5751273
20,1.217223,0.3161931,1.00002,0.742897
20,1.217289,0.199339,1.27498,0.886467
20,1.21734,0.125939,1.60823,0.952089
10,1.14866,100003.71,0.453506,-0.128515
10,1.14868,63093.824,0.452663,-0.0702403
10,1.148681,39814.059,0.455633,-0.0394421
10,1.14868,25116.91,0.456046,-0.0122819
10,1.14868,15847.683,0.458099,0.00273299
10,1.14869,10002.226,0.463849,0.0134972
10,1.14868,6307.73,0.476794,0.022542
10,1.14868,3981.27,0.487501,0.0346931
10,1.14868,2510.8,0.493993,0.0439737
10,1.14868,1585.51,0.510147,0.0529314
10,1.14869,1000.32,0.527933,0.0645318
10,1.14869,631.01,0.541668,0.0795031
10,1.1487,398.089,0.568513,0.0928796
10,1.14869,251.044,0.597376,0.10739
10,1.1487,158.428,0.633956,0.123073
10,1.1487,100.032,0.676259,0.130462
10,1.1487,63.0823,0.720084,0.135208
10,1.14871,39.8089,0.761012,0.1340134
10,1.148708,25.1044,0.795609,0.137358
10,1.1487,15.8576,0.8327322,0.14247
10,1.14871,10.0032,0.868472,0.153509
10,1.14873,6.31058,0.905659,0.174042
10,1.14871,3.97785,0.947974,0.195664
10,1.1487,2.51367,0.991328,0.23008
10,1.14874,1.58533,1.03679,0.284319
10,1.14876,1.00006,1.08773,0.3660439
10,1.14872,0.630905,1.15473,0.491984
10,1.1488,0.397745,1.25724,0.678266
10,1.14879,0.251222,1.43043,0.935108
10,1.14884,0.158607,1.74092,1.23782
10,1.14892,0.10007,2.21836,1.49599
10,1.14963,79433.273,0.452339,-0.0964452
10,1.14929,50122.477,0.450222,-0.0531168
10,1.14917,31621.139,0.4590795,-0.0212285
10,1.14911,19948.785,0.45876,-0.00437846
10,1.14908,12590.93,0.4649356,0.00711608
10,1.14906,7943.999,0.47305,0.0208429
10,1.14903,5011.604,0.481041,0.0315979
10,1.14903,3161.01,0.493376,0.03877639
10,1.14902,1995.64,0.504492,0.0480494
10,1.14902,1258.79,0.5158543,0.0591653
10,1.14903,794.238,0.533372,0.0741907
10,1.14902,501.444,0.555497,0.0831205
10,1.14903,316.316,0.578876,0.100751
10,1.149024,199.553,0.6203,0.117752
10,1.14903,125.846,0.654993,0.1237
10,1.14903,79.4155,0.701029,0.132288
10,1.14904,50.1444,0.742255,0.132005
10,1.149035,31.6296,0.780235,0.136028
10,1.14904,19.9553,0.81262,0.1387684
10,1.14905,12.6008,0.85058,0.147378
10,1.149048,7.93953,0.88865,0.1598677
10,1.14907,5.00801,0.925037,0.181897
10,1.14904,3.16296,0.969805,0.210003
10,1.14903,1.99553,1.01443,0.253912
10,1.14904,1.25967,1.06309,0.31986
10,1.14906,0.793631,1.12086,0.42377
10,1.149109,0.501541,1.20105,0.578562
10,1.1491,0.3161931,1.33395,0.800179
10,1.14912,0.199339,1.56682,1.08417
10,1.14919,0.125939,1.95426,1.38001
0,0.989732,100003.71,0.622446,-0.119611
0,0.9897458,63093.824,0.624409,-0.0616144
0,0.9897539,39814.059,0.627184,-0.0244776
0,0.9897626,25116.91,0.6390292,0.00332059
0,0.989767,15847.683,0.645117,0.0181041
0,0.9897691,10002.226,0.655364,0.0342817
0,0.989761,6307.73,0.671777,0.0533971
0,0.9897638,3981.27,0.687373,0.0664601
0,0.989772,2510.8,0.706416,0.0808367
0,0.98978,1585.51,0.733853,0.09879645
0,0.989788,1000.32,0.7582258,0.123736
0,0.989786,631.01,0.79184,0.146736
0,0.989791,398.089,0.836235,0.182305
0,0.989794,251.044,0.887912,0.219047
0,0.989809,158.428,0.950597,0.266174
0,0.989809,100.032,1.0295,0.318495
0,0.989813,63.0823,1.13282,0.378251
0,0.989826,39.8089,1.25602,0.438562
0,0.989813,25.1044,1.40011,0.492747
0,0.989808,15.8576,1.56156,0.527456
0,0.989869,10.0032,1.71608,0.556532
0,0.989887,6.31058,1.86932,0.5861578
0,0.989846,3.97785,2.00601,0.639166
0,0.989886,2.51367,2.13362,0.736853
0,0.98989,1.58533,2.265548,0.915452
0,0.9899503,1.00006,2.436609,1.20688
0,0.989891,0.630905,2.701725,1.64184
0,0.989973,0.397745,3.13493,2.23402
0,0.989955,0.251222,3.81913,2.92972
0,0.990179,0.158607,4.812984,3.64473
0,0.990268,0.10007,6.08598,4.26012
0,0.995586,79433.273,0.628448,-0.0892188
0,0.993481,50122.477,0.627168,-0.0413822
0,0.99266,31621.139,0.638369,-0.00865364
0,0.992239,19948.785,0.645505,0.0105981
0,0.991927,12590.93,0.657661,0.0277958
0,0.9917323,7943.999,0.66869,0.0425814
0,0.9915598,5011.604,0.684356,0.0593089
0,0.99144,3161.01,0.700099,0.0765254
0,0.991348,1995.64,0.722807,0.0927685
0,0.99127,1258.79,0.7500729,0.110581
0,0.9912,794.238,0.77837,0.137207
0,0.991151,501.444,0.819157,0.167088
0,0.991111,316.316,0.861683,0.203571
0,0.99108,199.553,0.9184401,0.243096
0,0.991053,125.846,0.990699,0.293712
0,0.991025,79.4155,1.081159,0.349103
0,0.991017,50.1444,1.19147,0.412739
0,0.9909938,31.6296,1.32907,0.465942
0,0.990973,19.9553,1.48191,0.5109942
0,0.990957,12.6008,1.64164,0.542392
0,0.990964,7.93953,1.79434,0.570304
0,0.990963,5.00801,1.93909,0.6086393
0,0.99086,3.16296,2.06983,0.680664
0,0.990845,1.99553,2.197459,0.814653
0,0.990833,1.25967,2.34446,1.0453
0,0.990919,0.793631,2.55881,1.40765
0,0.9909032,0.501541,2.89458,1.922786
0,0.990958,0.3161931,3.444983,2.57677
0,0.99087,0.199339,4.28039,3.30473
0,0.991066,0.125939,5.426125,3.9861
0,0.991165,0.10007,6.08595,4.27633