File: GEIS/Cell_9_GEIS.csv
SOC [%],Voltage [V],Frequency [Hz],Re(Ztot) [Ohm],-Im(Ztot) [Ohm]
100,1.60755,100003.71,0.1005744,-0.190026
100,1.60755,63093.824,0.0988526,-0.112146
100,1.60755,39814.059,0.101394,-0.0619112
100,1.60755,25116.91,0.107161,-0.027144
100,1.60755,15847.683,0.110896,-0.00401886
100,1.60755,10002.226,0.118382,0.0181586
100,1.60754,6307.73,0.125436,0.0348583
100,1.60754,3981.27,0.13531,0.0530281
100,1.60754,2510.8,0.143224,0.0753726
100,1.60755,1585.51,0.153586,0.108307
100,1.60754,1000.32,0.162034,0.158395
100,1.60753,631.01,0.172482,0.236861
100,1.60753,398.089,0.190672,0.359143
100,1.607523,251.044,0.216784,0.55553
100,1.60752,158.428,0.272118,0.8556937
100,1.6075,100.032,0.391753,1.31398
100,1.60745,63.0823,0.660944,1.99029
100,1.60733,39.8089,1.23757,2.888361
100,1.60717,25.1044,2.35955,3.8288
100,1.607,15.8576,4.0265,4.328423
100,1.60687,10.0032,5.73511,4.08226
100,1.60687,6.31058,6.96209,3.36196
100,1.60706,3.97785,7.65992,2.60549
100,1.60733,2.51367,8.01555,2.02808
100,1.60756,1.58533,8.171629,1.64884
100,1.60789,1.00006,8.22343,1.44091
100,1.60849,0.630905,8.24449,1.36758
100,1.60888,0.397745,8.16681,1.38112
100,1.60972,0.251222,8.1226,1.48389
100,1.61005,0.158607,7.87287,1.59188
100,1.61019,0.10007,7.32383,1.63184
100,1.60871,79433.273,0.0989545,-0.142496
100,1.60873,50122.477,0.0982574,-0.0825084
100,1.60874,31621.139,0.101241,-0.04035376
100,1.60875,19948.785,0.106095,-0.0148193
100,1.60875,12590.93,0.113419,0.00732511
100,1.60874,7943.999,0.120622,0.0258978
100,1.60871,5011.604,0.1294374,0.0437637
100,1.60869,3161.01,0.137508,0.0619736
100,1.60868,1995.64,0.147547,0.0882602
100,1.60868,1258.79,0.155734,0.1304801
100,1.60866,794.238,0.169533,0.192056
100,1.60864,501.444,0.1841938,0.291781
100,1.60862,316.316,0.211032,0.445309
100,1.60861,199.553,0.2603552,0.682853
100,1.608587,125.846,0.3702687,1.04505
100,1.60855,79.4155,0.611005,1.56324
100,1.6085,50.1444,1.11309,2.21593
100,1.60844,31.6296,2.01569,2.83899
100,1.60836,19.9553,3.23543,3.0923
100,1.608327,12.6008,4.38821,2.87059
100,1.60836,7.93953,5.23341,2.43663
100,1.60844,5.00801,5.8114,2.02835
100,1.60866,3.16296,6.23729,1.709367
100,1.60886,1.99553,6.557282,1.471824
100,1.60903,1.25967,6.76942,1.307541
100,1.60919,0.793631,6.89526,1.2227
100,1.60938,0.501541,6.95214,1.21599
100,1.60969,0.3161931,6.94778,1.27014
100,1.61004,0.199339,6.89961,1.366
100,1.609926,0.125939,6.77862,1.46834
90,1.467966,100003.71,0.1079,-0.200108
90,1.46797,63093.824,0.106903,-0.123026
90,1.46798,39814.059,0.104449,-0.075528
90,1.46797,25116.91,0.10648,-0.0447416
90,1.46798,15847.683,0.108161,-0.0254614
90,1.46798,10002.226,0.110803,-0.0138746
90,1.467968,6307.73,0.111279,-0.00479432
90,1.46797,3981.27,0.112072,0.00300719
90,1.46797,2510.8,0.114861,0.00780198
90,1.46797,1585.51,0.119686,0.00996406
90,1.46797,1000.32,0.122704,0.0125776
90,1.46797,631.01,0.126741,0.0173366
90,1.46797,398.089,0.132177,0.0210743
90,1.46797,251.044,0.1377933,0.0264374
90,1.46797,158.428,0.143422,0.0308516
90,1.46797,100.032,0.151033,0.0410637
90,1.46798,63.0823,0.160876,0.0516883
90,1.46797,39.8089,0.176732,0.0676502
90,1.46798,25.1044,0.196252,0.0852342
90,1.46798,15.8576,0.225514,0.104144
90,1.46798,10.0032,0.261711,0.119258
90,1.46798,6.31058,0.301329,0.125134
90,1.46798,3.97785,0.344027,0.124081
90,1.467978,2.51367,0.379911,0.119744
90,1.467979,1.58533,0.40909,0.115184
90,1.46798,1.00006,0.434286,0.112301
90,1.468,0.630905,0.455942,0.111805
90,1.468,0.397745,0.476925,0.115721
90,1.46803,0.251222,0.497457,0.121701
90,1.46804,0.158607,0.521095,0.131832
90,1.46809,0.10007,0.546198,0.142292
90,1.46801,79433.273,0.107606,-0.155396
90,1.46803,50122.477,0.105552,-0.0951481
90,1.46804,31621.139,0.1071385,-0.0572573
90,1.46805,19948.785,0.106242,-0.033988
90,1.468057,12590.93,0.107617,-0.01890832
90,1.46807,7943.999,0.108935,-0.00847215
90,1.46806,5011.604,0.112182,-0.000356266
90,1.46806,3161.01,0.113761,0.004578596
90,1.46807,1995.64,0.116096,0.00893819
90,1.46807,1258.79,0.120523,0.0115114
90,1.46807,794.238,0.124222,0.016309
90,1.46808,501.444,0.128679,0.0197151
90,1.468081,316.316,0.134165,0.0219534
90,1.46808,199.553,0.139274,0.0286955
90,1.46809,125.846,0.145212,0.0359632
90,1.46809,79.4155,0.155312,0.0454301
90,1.46809,50.1444,0.1683985,0.0598454
90,1.4681,31.6296,0.184479,0.074958
90,1.4681,19.9553,0.2098134,0.0926895
90,1.4681,12.6008,0.242117,0.111239
90,1.4681,7.93953,0.282848,0.121285
90,1.4681,5.00801,0.324087,0.124086
90,1.4681,3.16296,0.3637712,0.1206708
90,1.4681,1.99553,0.395175,0.114923
90,1.46811,1.25967,0.423146,0.110798
90,1.46813,0.793631,0.446353,0.110101
90,1.46815,0.501541,0.468788,0.1132705
90,1.46818,0.3161931,0.4898141,0.118669
90,1.46819,0.199339,0.512805,0.128137
90,1.46824,0.125939,0.534608,0.137076
80,1.429755,100003.71,0.101161,-0.196604
80,1.42976,63093.824,0.0985968,-0.121976
80,1.42976,39814.059,0.0969486,-0.0740445
80,1.42976,25116.91,0.0995936,-0.04552152
80,1.42977,15847.683,0.100049,-0.0259422
80,1.42977,10002.226,0.10169,-0.01352996
80,1.42976,6307.73,0.101366,-0.004166849
80,1.42976,3981.27,0.105581,0.00173381
80,1.42976,2510.8,0.107902,0.00220611
80,1.42976,1585.51,0.109871,0.00872423
80,1.42976,1000.32,0.1132388,0.0108385
80,1.42976,631.01,0.117651,0.0126544
80,1.429762,398.089,0.122594,0.0165117
80,1.42977,251.044,0.12563,0.0194955
80,1.42977,158.428,0.131552,0.0238173
80,1.42977,100.032,0.138288,0.0283148
80,1.42977,63.0823,0.145573,0.0352513
80,1.42977,39.8089,0.154482,0.0433492
80,1.42977,25.1044,0.164838,0.05564671
80,1.42977,15.8576,0.178818,0.0692088
80,1.42978,10.0032,0.2021146,0.0903708
80,1.42978,6.31058,0.234518,0.107134
80,1.42978,3.97785,0.274994,0.120102
80,1.42979,2.51367,0.314867,0.1246786
80,1.42978,1.58533,0.353706,0.122858
80,1.4298,1.00006,0.385406,0.119461
80,1.42981,0.630905,0.412566,0.117601
80,1.42982,0.397745,0.438078,0.119409
80,1.429846,0.251222,0.460936,0.123328
80,1.4299,0.158607,0.483511,0.129163
80,1.42995,0.10007,0.509922,0.140214
80,1.430189,79433.273,0.100223,-0.155292
80,1.43017,50122.477,0.09632837,-0.09515819
80,1.43016,31621.139,0.098817,-0.057961
80,1.43016,19948.785,0.0997865,-0.0337674
80,1.43014,12590.93,0.0992216,-0.0179105
80,1.43014,7943.999,0.100061,-0.00916764
80,1.43012,5011.604,0.1030844,-0.00118007
80,1.43011,3161.01,0.105155,0.00399411
80,1.43011,1995.64,0.109175,0.00788095
80,1.4301,1258.79,0.112487,0.0100537
80,1.43011,794.238,0.114672,0.0119618
80,1.4301,501.444,0.1191128,0.0137615
80,1.430096,316.316,0.124135,0.0190145
80,1.430094,199.553,0.128853,0.0209744
80,1.4301,125.846,0.135728,0.02502506
80,1.430087,79.4155,0.1409981,0.0304733
80,1.43009,50.1444,0.150366,0.0384798
80,1.43009,31.6296,0.158321,0.04712319
80,1.43009,19.9553,0.172512,0.06293004
80,1.43009,12.6008,0.190796,0.0791126
80,1.43009,7.93953,0.219531,0.0967634
80,1.4301,5.00801,0.255208,0.110373
80,1.43009,3.16296,0.295349,0.11691
80,1.43009,1.99553,0.333622,0.1165942
80,1.430092,1.25967,0.367201,0.1137197
80,1.43009,0.793631,0.396096,0.111222
80,1.43011,0.501541,0.42082,0.1109582
80,1.43011,0.3161931,0.446573,0.116469
80,1.43014,0.199339,0.470042,0.123142
80,1.4302,0.125939,0.494485,0.132374
70,1.389812,100003.71,0.111115,-0.198009
70,1.38982,63093.824,0.109112,-0.125195
70,1.38982,39814.059,0.107303,-0.0725166
70,1.38982,25116.91,0.108241,-0.0453965
70,1.38983,15847.683,0.108223,-0.0253767
70,1.38983,10002.226,0.110426,-0.01369794
70,1.38982,6307.73,0.113109,-0.00249381
70,1.38982,3981.27,0.115177,0.0020415
70,1.38982,2510.8,0.118876,0.00678118
70,1.38983,1585.51,0.122172,0.0102988
70,1.389828,1000.32,0.126907,0.01212573
70,1.38982,631.01,0.12946,0.0156902
70,1.38983,398.089,0.136798,0.0176091
70,1.38983,251.044,0.141813,0.0233454
70,1.38982,158.428,0.147562,0.0244154
70,1.38983,100.032,0.15281,0.027958
70,1.38983,63.0823,0.162971,0.03553763
70,1.38983,39.8089,0.168857,0.043195
70,1.38984,25.1044,0.180926,0.0542203
70,1.38984,15.8576,0.193718,0.0682272
70,1.38983,10.0032,0.21196,0.0851346
70,1.38984,6.31058,0.23791,0.109303
70,1.38984,3.97785,0.27378,0.132991
70,1.38985,2.51367,0.321083,0.1522989
70,1.38984,1.58533,0.375149,0.161069
70,1.389855,1.00006,0.425361,0.159057
70,1.38988,0.630905,0.467152,0.152616
70,1.38988,0.397745,0.503459,0.149216
70,1.38992,0.251222,0.532967,0.146884
70,1.38997,0.158607,0.560609,0.149781
70,1.39001,0.10007,0.588958,0.157278
70,1.390227,79433.273,0.107901,-0.155139
70,1.39021,50122.477,0.10388,-0.0951524
70,1.39021,31621.139,0.107537,-0.0572572
70,1.3902,19948.785,0.10809,-0.03418611
70,1.39019,12590.93,0.110055,-0.0185214
70,1.39019,7943.999,0.109761,-0.00624435
70,1.39017,5011.604,0.112318,-0.000128448
70,1.39016,3161.01,0.117123,0.00593063
70,1.39016,1995.64,0.119224,0.00989973
70,1.39016,1258.79,0.124012,0.011127
70,1.39016,794.238,0.127859,0.0142314
70,1.39016,501.444,0.132,0.0179491
70,1.39015,316.316,0.13754,0.0188005
70,1.39015,199.553,0.1439653,0.0231948
70,1.39015,125.846,0.147424,0.0272319
70,1.390157,79.4155,0.154943,0.0324186
70,1.39015,50.1444,0.1627802,0.0387341
70,1.39015,31.6296,0.17457,0.0475524
70,1.390151,19.9553,0.185716,0.06034366
70,1.39015,12.6008,0.200633,0.0750409
70,1.39015,7.93953,0.223961,0.09637969
70,1.39014,5.00801,0.253848,0.11813
70,1.39014,3.16296,0.297233,0.1402263
70,1.39015,1.99553,0.3481181,0.152109
70,1.39015,1.25967,0.399235,0.152884
70,1.39016,0.793631,0.444245,0.147535
70,1.39016,0.501541,0.482957,0.143926
70,1.39019,0.3161931,0.513358,0.141266
70,1.3902,0.199339,0.543957,0.145002
70,1.39022,0.125939,0.5726226,0.151648
60,1.356362,100003.71,0.114385,-0.1956825
60,1.35636,63093.824,0.111479,-0.121441
60,1.35636,39814.059,0.109274,-0.0722152
60,1.35637,25116.91,0.113137,-0.0439858
60,1.35637,15847.683,0.11308,-0.02338638
60,1.35637,10002.226,0.116485,-0.00978259
60,1.35636,6307.73,0.119752,-0.0018005
60,1.35636,3981.27,0.122511,0.00537706
60,1.35636,2510.8,0.126115,0.0080528
60,1.35636,1585.51,0.130787,0.0120867
60,1.35636,1000.32,0.135449,0.0160274
60,1.35636,631.01,0.142269,0.0173339
60,1.35636,398.089,0.145433,0.0201289
60,1.35636,251.044,0.152219,0.0237804
60,1.35637,158.428,0.158154,0.0281268
60,1.35637,100.032,0.166361,0.0323676
60,1.35637,63.0823,0.174362,0.0376404
60,1.35637,39.8089,0.18431,0.045936
60,1.35637,25.1044,0.1945748,0.0557967
60,1.35638,15.8576,0.208169,0.0682627
60,1.35637,10.0032,0.225978,0.0841758
60,1.35638,6.31058,0.249416,0.109089
60,1.35639,3.97785,0.281864,0.139534
60,1.3564,2.51367,0.3297967,0.168406
60,1.35639,1.58533,0.391401,0.190279
60,1.35639,1.00006,0.457433,0.1975231
60,1.35642,0.630905,0.517129,0.191255
60,1.356418,0.397745,0.567588,0.183714
60,1.35646,0.251222,0.60764,0.174946
60,1.35651,0.158607,0.643217,0.17315
60,1.356552,0.10007,0.67748,0.176427
60,1.3567,79433.273,0.11179,-0.154748
60,1.3567,50122.477,0.109208,-0.0956269
60,1.35669,31621.139,0.11286,-0.05685997
60,1.35669,19948.785,0.109632,-0.0309456
60,1.35669,12590.93,0.113563,-0.01688209
60,1.35667,7943.999,0.117846,-0.00504539
60,1.35666,5011.604,0.121271,0.0019186
60,1.35666,3161.01,0.124546,0.00697622
60,1.35666,1995.64,0.12795,0.0109377
60,1.356661,1258.79,0.134911,0.0136596
60,1.35666,794.238,0.138643,0.0155375
60,1.35665,501.444,0.14322,0.0201331
60,1.35665,316.316,0.148264,0.0235969
60,1.356654,199.553,0.154774,0.0260084
60,1.35665,125.846,0.164059,0.0291564
60,1.356655,79.4155,0.170322,0.0345823
60,1.356652,50.1444,0.178368,0.0412036
60,1.35665,31.6296,0.190765,0.0497524
60,1.35665,19.9553,0.202949,0.0615018
60,1.35666,12.6008,0.216843,0.0752779
60,1.35666,7.93953,0.236886,0.0967714
60,1.35667,5.00801,0.2650553,0.123078
60,1.35666,3.16296,0.305449,0.151868
60,1.35665,1.99553,0.360828,0.178241
60,1.35665,1.25967,0.425844,0.190994
60,1.35667,0.793631,0.48925,0.19078
60,1.356683,0.501541,0.542768,0.182522
60,1.35669,0.3161931,0.5877,0.175761
60,1.356714,0.199339,0.62632,0.172337
60,1.356775,0.125939,0.658267,0.172495
50,1.33307,100003.71,0.120758,-0.195136
50,1.333078,63093.824,0.117903,-0.120686
50,1.33307,39814.059,0.117318,-0.072196
50,1.33308,25116.91,0.121121,-0.0408331
50,1.33308,15847.683,0.124882,-0.0212579
50,1.33308,10002.226,0.12689,-0.008231408
50,1.33307,6307.73,0.13065,0.000932757
50,1.33307,3981.27,0.1345574,0.00869482
50,1.33307,2510.8,0.141138,0.0144569
50,1.33308,1585.51,0.146643,0.0173817
50,1.33308,1000.32,0.153546,0.01989512
50,1.33307,631.01,0.158001,0.0229077
50,1.333071,398.089,0.168101,0.0266975
50,1.33308,251.044,0.1745207,0.0292389
50,1.33308,158.428,0.182561,0.0315785
50,1.33308,100.032,0.190829,0.0381942
50,1.33308,63.0823,0.201167,0.0429558
50,1.33309,39.8089,0.212517,0.0504927
50,1.33309,25.1044,0.225631,0.0593426
50,1.33309,15.8576,0.2400517,0.073943
50,1.33308,10.0032,0.258345,0.09060555
50,1.33309,6.31058,0.278432,0.1138788
50,1.33309,3.97785,0.308847,0.14667
50,1.33309,2.51367,0.352432,0.189701
50,1.33311,1.58533,0.417368,0.23318
50,1.33311,1.00006,0.504141,0.266502
50,1.33311,0.630905,0.59961,0.275106
50,1.33315,0.397745,0.683303,0.261345
50,1.33317,0.251222,0.750311,0.244165
50,1.33321,0.158607,0.803532,0.229838
50,1.3333,0.10007,0.847584,0.2217956
50,1.33315,79433.273,0.119891,-0.1558051
50,1.333167,50122.477,0.115837,-0.0942688
50,1.33318,31621.139,0.120681,-0.0551764
50,1.33319,19948.785,0.12226,-0.02989
50,1.3332,12590.93,0.123478,-0.0132429
50,1.33322,7943.999,0.126257,-0.004427114
50,1.33321,5011.604,0.132959,0.00543105
50,1.33322,3161.01,0.138584,0.0110011
50,1.33322,1995.64,0.143903,0.0155143
50,1.33323,1258.79,0.148681,0.0186787
50,1.333236,794.238,0.155846,0.0222924
50,1.33324,501.444,0.161927,0.0246741
50,1.333243,316.316,0.169408,0.0286538
50,1.33325,199.553,0.178284,0.0297758
50,1.33325,125.846,0.187929,0.0356245
50,1.33325,79.4155,0.195924,0.0390667
50,1.33325,50.1444,0.206684,0.04767428
50,1.33326,31.6296,0.219727,0.05510062
50,1.33327,19.9553,0.235878,0.0655602
50,1.33327,12.6008,0.247659,0.0806219
50,1.33328,7.93953,0.269489,0.101464
50,1.33327,5.00801,0.293705,0.131732
50,1.33328,3.16296,0.329271,0.168158
50,1.3333,1.99553,0.3836672,0.211393
50,1.3333,1.25967,0.459572,0.250238
50,1.33332,0.793631,0.553509,0.271224
50,1.33333,0.501541,0.644611,0.270514
50,1.333375,0.3161931,0.719563,0.252527
50,1.3334,0.199339,0.780536,0.238057
50,1.333442,0.125939,0.829578,0.2273612
40,1.3077,100003.71,0.141449,-0.192498
40,1.307707,63093.824,0.138069,-0.118211
40,1.30771,39814.059,0.13694,-0.0688837
40,1.30771,25116.91,0.141645,-0.0381216
40,1.30771,15847.683,0.144531,-0.0197448
40,1.30772,10002.226,0.14623,-0.0049289
40,1.30772,6307.73,0.1520499,0.00583444
40,1.3077,3981.27,0.1566332,0.0132918
40,1.30771,2510.8,0.1641867,0.0175656
40,1.3077,1585.51,0.169222,0.0248837
40,1.30771,1000.32,0.1770514,0.0256906
40,1.3077,631.01,0.187639,0.0286179
40,1.307704,398.089,0.1973765,0.0299541
40,1.30771,251.044,0.205216,0.0328685
40,1.30771,158.428,0.215814,0.0374552
40,1.30772,100.032,0.2256853,0.0407551
40,1.30772,63.0823,0.236762,0.0455967
40,1.30772,39.8089,0.248844,0.0518179
40,1.30772,25.1044,0.262262,0.0626382
40,1.30772,15.8576,0.277594,0.0741999
40,1.30773,10.0032,0.296501,0.09106297
40,1.30773,6.31058,0.316745,0.114866
40,1.30772,3.97785,0.344808,0.146983
40,1.30772,2.51367,0.383839,0.190022
40,1.307741,1.58533,0.442468,0.24517
40,1.30775,1.00006,0.530791,0.298843
40,1.30775,0.630905,0.643978,0.331851
40,1.30779,0.397745,0.761579,0.330772
40,1.3078,0.251222,0.859588,0.310759
40,1.307862,0.158607,0.936,0.284611
40,1.30796,0.10007,0.997017,0.2664361
40,1.30808,79433.273,0.139229,-0.152416
40,1.308075,50122.477,0.136054,-0.0911984
40,1.30806,31621.139,0.140177,-0.0524058
40,1.30806,19948.785,0.141329,-0.0259543
40,1.30805,12590.93,0.143561,-0.0136304
40,1.30805,7943.999,0.148226,0.00072727
40,1.30803,5011.604,0.154903,0.00997125
40,1.30804,3161.01,0.161025,0.0153372
40,1.30802,1995.64,0.168057,0.0205014
40,1.30803,1258.79,0.174149,0.0251164
40,1.30803,794.238,0.183493,0.0274253
40,1.30802,501.444,0.192186,0.0299094
40,1.308024,316.316,0.20212,0.0345248
40,1.30803,199.553,0.210105,0.0348337
40,1.30802,125.846,0.221023,0.0385302
40,1.30802,79.4155,0.231228,0.0436193
40,1.308032,50.1444,0.242542,0.0493528
40,1.30802,31.6296,0.2554,0.0571855
40,1.30802,19.9553,0.2705915,0.067328
40,1.30802,12.6008,0.286589,0.0813603
40,1.30803,7.93953,0.306163,0.101318
40,1.30802,5.00801,0.329838,0.129216
40,1.30802,3.16296,0.36149,0.167516
40,1.30804,1.99553,0.411294,0.216618
40,1.30803,1.25967,0.485026,0.271547
40,1.30805,0.793631,0.587679,0.315499
40,1.30805,0.501541,0.705435,0.333585
40,1.30809,0.3161931,0.813819,0.320309
40,1.3081,0.199339,0.902284,0.299026
40,1.30814,0.125939,0.970629,0.276743
30,1.26735,100003.71,0.206291,-0.193536
30,1.26736,63093.824,0.203946,-0.1165692
30,1.26736,39814.059,0.203892,-0.0665823
30,1.26736,25116.91,0.209046,-0.0374983
30,1.26736,15847.683,0.212211,-0.0164397
30,1.26736,10002.226,0.217882,-0.00234607
30,1.26736,6307.73,0.224461,0.00833685
30,1.26736,3981.27,0.231454,0.0162224
30,1.26736,2510.8,0.2382969,0.0214467
30,1.26736,1585.51,0.246596,0.0238227
30,1.26737,1000.32,0.257799,0.0284154
30,1.26736,631.01,0.2638779,0.02971923
30,1.26736,398.089,0.273374,0.028941
30,1.26737,251.044,0.279965,0.0331423
30,1.26737,158.428,0.289776,0.0366466
30,1.26737,100.032,0.299281,0.0396945
30,1.26737,63.0823,0.3102704,0.045854
30,1.26737,39.8089,0.321978,0.0554972
30,1.267372,25.1044,0.337321,0.0646519
30,1.26737,15.8576,0.354946,0.0771169
30,1.26737,10.0032,0.373837,0.0943401
30,1.26737,6.31058,0.3959626,0.115656
30,1.26737,3.97785,0.421525,0.147946
30,1.26735,2.51367,0.453465,0.192502
30,1.26739,1.58533,0.501184,0.257668
30,1.2674,1.00006,0.577381,0.339932
30,1.2674,0.630905,0.695899,0.427095
30,1.26745,0.397745,0.860006,0.486584
30,1.26747,0.251222,1.03931,0.496813
30,1.26751,0.158607,1.19607,0.464487
30,1.26762,0.10007,1.31796,0.4219763
30,1.26745,79433.273,0.204872,-0.154005
30,1.26747,50122.477,0.202211,-0.0904738
30,1.2675,31621.139,0.206374,-0.0494301
30,1.26751,19948.785,0.209903,-0.024843
30,1.26753,12590.93,0.214077,-0.00695515
30,1.26754,7943.999,0.220016,0.00548345
30,1.26753,5011.604,0.226378,0.0138187
30,1.267542,3161.01,0.233788,0.0198273
30,1.26756,1995.64,0.2449241,0.0225784
30,1.26756,1258.79,0.253187,0.02547
30,1.26758,794.238,0.258829,0.0257544
30,1.26757,501.444,0.268049,0.02903362
30,1.26757,316.316,0.276728,0.0314634
30,1.26758,199.553,0.28588,0.0339516
30,1.26759,125.846,0.295405,0.0389647
30,1.26759,79.4155,0.303362,0.0434547
30,1.26758,50.1444,0.316464,0.0499439
30,1.2676,31.6296,0.3285532,0.05955049
30,1.2676,19.9553,0.343776,0.0719873
30,1.26761,12.6008,0.362605,0.0848605
30,1.2676,7.93953,0.383839,0.104592
30,1.26763,5.00801,0.407169,0.131269
30,1.26763,3.16296,0.435513,0.167783
30,1.26762,1.99553,0.474965,0.222722
30,1.26764,1.25967,0.536138,0.296181
30,1.26764,0.793631,0.6317659,0.383878
30,1.26767,0.501541,0.774374,0.461303
30,1.26768,0.3161931,0.950415,0.501326
30,1.26775,0.199339,1.12427,0.487615
30,1.26783,0.125939,1.26369,0.447111
20,1.17904,100003.71,0.332212,-0.194424
20,1.17903,63093.824,0.332915,-0.115551
20,1.17903,39814.059,0.335991,-0.0648279
20,1.17903,25116.91,0.341157,-0.0345893
20,1.17903,15847.683,0.344864,-0.0133706
20,1.17903,10002.226,0.350349,-0.00295061
20,1.17902,6307.73,0.357125,0.00567677
20,1.17902,3981.27,0.362935,0.0120863
20,1.17901,2510.8,0.367508,0.0145546
20,1.17901,1585.51,0.373599,0.01691127
20,1.17901,1000.32,0.380302,0.019729
20,1.179,631.01,0.384641,0.0225336
20,1.17901,398.089,0.391109,0.02628815
20,1.179002,251.044,0.397446,0.0302106
20,1.179004,158.428,0.408451,0.0355953
20,1.17901,100.032,0.4177,0.043713
20,1.179,63.0823,0.429503,0.0531976
20,1.179,39.8089,0.442868,0.0635174
20,1.17898,25.1044,0.46017,0.0752888
20,1.17899,15.8576,0.479362,0.0906467
20,1.17902,10.0032,0.503072,0.11106
20,1.17902,6.31058,0.532067,0.1341565
20,1.17898,3.97785,0.56159,0.166019
20,1.179,2.51367,0.597183,0.209564
20,1.179023,1.58533,0.6356312,0.275023
20,1.17906,1.00006,0.687243,0.37392
20,1.17911,0.630905,0.770189,0.521016
20,1.17924,0.397745,0.917096,0.721116
20,1.17948,0.251222,1.1697,0.9414131
20,1.17985,0.158607,1.5519,1.10534
20,1.18024,0.10007,1.98062,1.11225
20,1.1798,79433.273,0.332866,-0.149886
20,1.17966,50122.477,0.333467,-0.0875235
20,1.17955,31621.139,0.338153,-0.0478052
20,1.17949,19948.785,0.3409,-0.022064
20,1.17944,12590.93,0.347247,-0.00591918
20,1.1794,7943.999,0.354058,0.00398116
20,1.17935,5011.604,0.358807,0.0100425
20,1.17933,3161.01,0.367249,0.01378006
20,1.1793,1995.64,0.372659,0.0157959
20,1.17929,1258.79,0.375168,0.0188466
20,1.17927,794.238,0.381715,0.0205593
20,1.17924,501.444,0.390486,0.0240362
20,1.17923,316.316,0.396646,0.0288687
20,1.17921,199.553,0.402328,0.0339082
20,1.1792,125.846,0.413394,0.0395708
20,1.17919,79.4155,0.422839,0.04719945
20,1.17918,50.1444,0.437229,0.0584501
20,1.17916,31.6296,0.452124,0.0697891
20,1.179153,19.9553,0.469888,0.0824202
20,1.179153,12.6008,0.490675,0.09919291
20,1.17913,7.93953,0.5176059,0.121804
20,1.17916,5.00801,0.547166,0.149357
20,1.17912,3.16296,0.579773,0.185982
20,1.17908,1.99553,0.6154812,0.23861
20,1.1791,1.25967,0.661151,0.319426
20,1.17911,0.793631,0.724514,0.441574
20,1.1792,0.501541,0.832468,0.611606
20,1.17934,0.3161931,1.027925,0.829081
20,1.17961,0.199339,1.34866,1.03338
20,1.17997,0.125939,1.76857,1.12627
10,1.128787,100003.71,0.595527,-0.190483
10,1.1288,63093.824,0.591103,-0.109759
10,1.1288,39814.059,0.597738,-0.0560395
10,1.12881,25116.91,0.603229,-0.0222074
10,1.12881,15847.683,0.612602,0.00189463
10,1.12882,10002.226,0.623178,0.0204511
10,1.1288,6307.73,0.634068,0.0331021
10,1.1288,3981.27,0.64551,0.0479121
10,1.12881,2510.8,0.660837,0.0589468
10,1.12881,1585.51,0.681649,0.0735173
10,1.12881,1000.32,0.702011,0.0888844
10,1.12881,631.01,0.727711,0.104042
10,1.128809,398.089,0.759878,0.123713
10,1.12881,251.044,0.80017,0.142584
10,1.12882,158.428,0.846202,0.16195
10,1.12881,100.032,0.9020288,0.1755126
10,1.12881,63.0823,0.960114,0.185376
10,1.12882,39.8089,1.01802,0.188153
10,1.128842,25.1044,1.07479,0.189759
10,1.12884,15.8576,1.12494,0.195609
10,1.1288,10.0032,1.17701,0.205984
10,1.1288,6.31058,1.22896,0.221854
10,1.128834,3.97785,1.28436,0.247256
10,1.12881,2.51367,1.34231,0.286303
10,1.12884,1.58533,1.40451,0.342575
10,1.12881,1.00006,1.4714,0.430621
10,1.1289,0.630905,1.55558,0.56469
10,1.1289,0.397745,1.67396,0.762445
10,1.12893,0.251222,1.87009,1.02838
10,1.12883,0.158607,2.19371,1.35124
10,1.1288,0.10007,2.70636,1.61853
10,1.12789,79433.273,0.58741,-0.14447
10,1.12817,50122.477,0.5902456,-0.0786313
10,1.12839,31621.139,0.599302,-0.036001
10,1.12854,19948.785,0.607981,-0.00978298
10,1.12863,12590.93,0.614797,0.0100287
10,1.128708,7943.999,0.625611,0.0250898
10,1.12877,5011.604,0.636818,0.0410259
10,1.12881,3161.01,0.652505,0.05431075
10,1.12886,1995.64,0.667841,0.0669181
10,1.12889,1258.79,0.68836,0.0784228
10,1.128922,794.238,0.712927,0.0961575
10,1.12894,501.444,0.743002,0.111959
10,1.12897,316.316,0.777315,0.132657
10,1.12898,199.553,0.819239,0.151911
10,1.129,125.846,0.87073,0.170493
10,1.12901,79.4155,0.926882,0.182376
10,1.12902,50.1444,0.986203,0.18675
10,1.12904,31.6296,1.04343,0.190449
10,1.12905,19.9553,1.09827,0.19231
10,1.12905,12.6008,1.14924,0.199356
10,1.12907,7.93953,1.1989,0.210539
10,1.12904,5.00801,1.25378,0.23346
10,1.12905,3.16296,1.30922,0.264474
10,1.12912,1.99553,1.36898,0.311044
10,1.12912,1.25967,1.43231,0.381605
10,1.12924,0.793631,1.506408,0.489559
10,1.12915,0.501541,1.60315,0.65217
10,1.12928,0.3161931,1.75352,0.885099
10,1.12917,0.199339,2.00022,1.19579
10,1.12913,0.125939,2.41658,1.5185
0,0.976849,100003.71,0.633467,-0.187022
0,0.976861,63093.824,0.6359362,-0.105823
0,0.976861,39814.059,0.639067,-0.0496675
0,0.976866,25116.91,0.647221,-0.0169788
0,0.976872,15847.683,0.6563248,0.00828411
0,0.976869,10002.226,0.668507,0.02972604
0,0.976868,6307.73,0.681766,0.0463936
0,0.976871,3981.27,0.699077,0.060495
0,0.976878,2510.8,0.715776,0.0784136
0,0.976877,1585.51,0.743011,0.100677
0,0.976885,1000.32,0.767594,0.1222
0,0.976882,631.01,0.802985,0.144798
0,0.976889,398.089,0.843132,0.175273
0,0.9768911,251.044,0.894047,0.212621
0,0.976899,158.428,0.955379,0.254577
0,0.9768939,100.032,1.03293,0.3044152
0,0.976912,63.0823,1.13321,0.355362
0,0.976917,39.8089,1.25193,0.399734
0,0.976959,25.1044,1.3849,0.434119
0,0.976959,15.8576,1.518742,0.454537
0,0.976842,10.0032,1.64675,0.47445
0,0.9768346,6.31058,1.76095,0.502308
0,0.976909,3.97785,1.8603,0.5624904
0,0.976759,2.51367,1.94941,0.682301
0,0.976933,1.58533,2.04728,0.8963393
0,0.97682,1.00006,2.18121,1.24553
0,0.976929,0.630905,2.39936,1.78001
0,0.9769128,0.397745,2.789999,2.54837
0,0.976766,0.251222,3.48106,3.54122
0,0.975932,0.158607,4.5943,4.69401
0,0.975689,0.10007,6.21918,5.81687
0,0.970986,79433.273,0.631026,-0.1419922
0,0.971872,50122.477,0.636086,-0.0762366
0,0.9726,31621.139,0.645747,-0.0311422
0,0.97318,19948.785,0.654107,-0.00218173
0,0.97361,12590.93,0.662836,0.0223515
0,0.973979,7943.999,0.674964,0.038051
0,0.974303,5011.604,0.688169,0.05442195
0,0.974602,3161.01,0.708253,0.0705656
0,0.974858,1995.64,0.728844,0.0879844
0,0.975092,1258.79,0.7554093,0.108199
0,0.9753,794.238,0.785202,0.13205
0,0.97548,501.444,0.821372,0.1582408
0,0.975649,316.316,0.867105,0.192533
0,0.975795,199.553,0.923313,0.233793
0,0.975918,125.846,0.991884,0.27827
0,0.976044,79.4155,1.0795,0.330632
0,0.976142,50.1444,1.18933,0.378431
0,0.976231,31.6296,1.315796,0.418928
0,0.976338,19.9553,1.45058,0.445909
0,0.9764536,12.6008,1.58429,0.464884
0,0.976488,7.93953,1.70612,0.485754
0,0.976767,5.00801,1.81288,0.527155
0,0.976848,3.16296,1.90508,0.613374
0,0.97678,1.99553,1.99619,0.773982
0,0.976997,1.25967,2.107693,1.05087
0,0.976954,0.793631,2.27075,1.48597
0,0.977452,0.501541,2.56019,2.12578
0,0.976895,0.3161931,3.07378,3.01896
0,0.977154,0.199339,3.98072,4.12421
0,0.976744,0.125939,5.35038,5.27846
0,0.97614,0.10007,6.20144,5.84823