File: GEIS/Cell_7_GEIS.csv
SOC [%],Voltage [V],Frequency [Hz],Re(Ztot) [Ohm],-Im(Ztot) [Ohm]
100,1.60894,100003.71,0.173501,-0.0514607
100,1.60893,63093.824,0.172079,-0.02398
100,1.60892,39814.059,0.1742995,-0.0059519
100,1.60892,25116.91,0.179732,0.00860015
100,1.60891,15847.683,0.1851245,0.023615
100,1.60891,10002.226,0.19477,0.034595
100,1.60891,6307.73,0.202161,0.0466483
100,1.60891,3981.27,0.212401,0.0627261
100,1.6089,2510.8,0.223948,0.0834071
100,1.6089,1585.51,0.233709,0.114799
100,1.60889,1000.32,0.243586,0.163829
100,1.6089,631.01,0.255405,0.24216
100,1.60888,398.089,0.268146,0.367156
100,1.60889,251.044,0.285853,0.560857
100,1.60886,158.428,0.317702,0.86576
100,1.60891,100.032,0.380861,1.34422
100,1.60888,63.0823,0.508991,2.08615
100,1.60878,39.8089,0.804249,3.2101
100,1.60893,25.1044,1.39516,4.87334
100,1.60898,15.8576,2.72045,7.15152
100,1.60837,10.0032,5.4278,9.65695
100,1.60829,6.31058,9.513855,11.3358
100,1.60814,3.97785,14.38,10.981
100,1.60791,2.51367,18.0469,9.16482
100,1.60757,1.58469,20.14848,6.87891
100,1.60772,1.00006,20.8397,5.06135
100,1.60804,0.631262,21.10105,3.88498
100,1.60799,0.397745,21.0022,3.31961
100,1.60773,0.251173,20.8616,3.04916
100,1.60785,0.158469,20.4706,3.28168
100,1.60839,0.09990409,20.4515,3.62055
100,1.60499,79433.273,0.174267,-0.0366372
100,1.60512,50122.477,0.1775198,-0.0155541
100,1.6052,31621.139,0.179882,0.00276095
100,1.60526,19948.785,0.183724,0.0162169
100,1.60533,12590.93,0.193698,0.0282236
100,1.60538,7943.999,0.199763,0.0403108
100,1.60545,5011.604,0.211594,0.054441
100,1.60552,3161.01,0.22161,0.0701978
100,1.60558,1995.64,0.230657,0.0968189
100,1.60565,1258.79,0.2409082,0.137125
100,1.60571,794.238,0.2522699,0.19789
100,1.60576,501.444,0.265792,0.296367
100,1.60582,316.316,0.286033,0.451326
100,1.60587,199.553,0.318108,0.692111
100,1.60593,125.846,0.387925,1.06734
100,1.606,79.4155,0.537922,1.63775
100,1.60604,50.1444,0.8766323,2.47079
100,1.606143,31.6296,1.57447,3.57959
100,1.60617,19.9553,2.897,4.79249
100,1.6063,12.6008,4.88966,5.58588
100,1.60633,7.93953,7.1242,5.60966
100,1.60643,5.014442,9.03927,4.99007
100,1.60638,3.1604,10.4178,4.15292
100,1.6065,1.99706,11.2931,3.413827
100,1.60675,1.25967,11.8799,2.707
100,1.60693,0.794438,12.3381,2.2255
100,1.60707,0.501187,12.8095,1.96446
100,1.60735,0.3161931,13.0734,1.90383
100,1.60782,0.199339,13.4942,1.852113
100,1.60828,0.125907,14.1035,1.97186
90,1.4832,100003.71,0.159876,-0.0579347
90,1.4832,63093.824,0.157891,-0.0355356
90,1.4832,39814.059,0.157714,-0.0209921
90,1.4832,25116.91,0.157822,-0.0109844
90,1.4832,15847.683,0.158821,-0.00381381
90,1.4832,10002.226,0.160384,0.000490572
90,1.4832,6307.73,0.162329,0.00429471
90,1.4832,3981.27,0.16564,0.00750285
90,1.4832,2510.8,0.168294,0.00960109
90,1.4832,1585.51,0.171986,0.0112248
90,1.4832,1000.32,0.174896,0.0135084
90,1.4832,631.01,0.178528,0.016403
90,1.4832,398.089,0.1829,0.0193686
90,1.4832,251.044,0.187377,0.0233346
90,1.4832,158.428,0.192415,0.0287533
90,1.4832,100.032,0.198864,0.0366531
90,1.4832,63.0823,0.2055014,0.0482932
90,1.4832,39.8089,0.214426,0.0649998
90,1.4832,25.1044,0.227096,0.0910118
90,1.4832,15.8576,0.246442,0.126038
90,1.4832,10.0032,0.279014,0.1739907
90,1.48319,6.31058,0.334364,0.232761
90,1.4832,3.97785,0.418236,0.291353
90,1.4832,2.51367,0.527441,0.332772
90,1.48319,1.58533,0.645678,0.348499
90,1.48319,1.00006,0.75454,0.3407946
90,1.4832,0.630905,0.842129,0.320908
90,1.48318,0.397745,0.91469,0.30908
90,1.48321,0.251222,0.9706432,0.299556
90,1.4832,0.158607,1.02481,0.303838
90,1.48319,0.10007,1.07589,0.313808
90,1.48319,79433.273,0.158316,-0.04548567
90,1.48322,50122.477,0.158313,-0.0276233
90,1.48324,31621.139,0.15818,-0.0149428
90,1.48324,19948.785,0.158464,-0.00730697
90,1.48324,12590.93,0.159732,-0.0014755
90,1.48325,7943.999,0.16196,0.0031079
90,1.48324,5011.604,0.164064,0.00587912
90,1.48324,3161.01,0.166908,0.00869861
90,1.48324,1995.64,0.1703473,0.0109718
90,1.48324,1258.79,0.173428,0.0130849
90,1.48324,794.238,0.176771,0.0151982
90,1.48324,501.444,0.1811677,0.01757842
90,1.48324,316.316,0.185091,0.0209018
90,1.48324,199.553,0.189663,0.0261813
90,1.48324,125.846,0.1961048,0.0323319
90,1.48324,79.4155,0.2018407,0.0423458
90,1.48324,50.1444,0.209353,0.0562955
90,1.48324,31.6296,0.21965,0.0770762
90,1.48324,19.9553,0.2350727,0.10689
90,1.48324,12.6008,0.261169,0.148423
90,1.48324,7.93953,0.305066,0.202649
90,1.48325,5.00801,0.373783,0.261945
90,1.48323,3.16296,0.472193,0.313062
90,1.48322,1.99553,0.5882839,0.341543
90,1.48323,1.25967,0.7033612,0.3423431
90,1.48323,0.793631,0.802746,0.328636
90,1.48324,0.501541,0.881581,0.311747
90,1.48323,0.3161931,0.9481941,0.303951
90,1.48322,0.199339,1.0053,0.303659
90,1.48325,0.125939,1.05047,0.305665
80,1.42231,100003.71,0.165084,-0.05652075
80,1.42232,63093.824,0.163702,-0.03448045
80,1.42232,39814.059,0.163787,-0.019516
80,1.42232,25116.91,0.163894,-0.00969943
80,1.42232,15847.683,0.165285,-0.00286085
80,1.42232,10002.226,0.166914,0.000982486
80,1.42232,6307.73,0.1695892,0.005189782
80,1.42232,3981.27,0.172513,0.00769865
80,1.42232,2510.8,0.175184,0.00967258
80,1.42232,1585.51,0.178722,0.0119425
80,1.42232,1000.32,0.182037,0.0143499
80,1.42233,631.01,0.1863431,0.0154392
80,1.42233,398.089,0.19107,0.0176129
80,1.42233,251.044,0.195832,0.0212445
80,1.42233,158.428,0.201209,0.0245352
80,1.42233,100.032,0.206161,0.0293337
80,1.42233,63.0823,0.2142956,0.03605736
80,1.42234,39.8089,0.2221612,0.0451122
80,1.42234,25.1044,0.231532,0.058127
80,1.42234,15.8576,0.246048,0.0760915
80,1.42234,10.0032,0.2660768,0.0998637
80,1.42234,6.31058,0.296934,0.129396
80,1.42234,3.97785,0.342709,0.158793
80,1.42234,2.51367,0.399544,0.181726
80,1.42235,1.58533,0.462682,0.193375
80,1.42236,1.00006,0.523403,0.1960359
80,1.42237,0.630905,0.5770733,0.193715
80,1.42239,0.397745,0.6247431,0.192325
80,1.42243,0.251222,0.666724,0.19346
80,1.42246,0.158607,0.7082599,0.201124
80,1.42253,0.10007,0.7487355,0.210845
80,1.42232,79433.273,0.164213,-0.0447452
80,1.42239,50122.477,0.163436,-0.0264953
80,1.42242,31621.139,0.163578,-0.0143544
80,1.42244,19948.785,0.16446,-0.00665691
80,1.42246,12590.93,0.166062,-0.000140481
80,1.422472,7943.999,0.168469,0.00337054
80,1.42248,5011.604,0.170503,0.006455234
80,1.42249,3161.01,0.173699,0.00912658
80,1.42249,1995.64,0.176624,0.0107736
80,1.4225,1258.79,0.18064,0.0130132
80,1.4225,794.238,0.1840076,0.0145537
80,1.42251,501.444,0.188402,0.0164604
80,1.42251,316.316,0.193297,0.0198429
80,1.42252,199.553,0.197692,0.022491
80,1.42252,125.846,0.203859,0.0260746
80,1.42252,79.4155,0.210355,0.0323955
80,1.42253,50.1444,0.2173963,0.0401834
80,1.42253,31.6296,0.226037,0.0507603
80,1.42253,19.9553,0.237867,0.0667337
80,1.42253,12.6008,0.255107,0.0880946
80,1.42254,7.93953,0.280088,0.114925
80,1.42255,5.00801,0.318705,0.145335
80,1.42254,3.16296,0.370391,0.172433
80,1.42255,1.99553,0.431981,0.1907288
80,1.42256,1.25967,0.4958007,0.197071
80,1.42257,0.793631,0.554572,0.196992
80,1.4226,0.501541,0.605196,0.193969
80,1.42262,0.3161931,0.650834,0.195253
80,1.422654,0.199339,0.692322,0.199175
80,1.42272,0.125939,0.729193,0.205965
70,1.3874,100003.71,0.160258,-0.0563417
70,1.38741,63093.824,0.158556,-0.03345258
70,1.38741,39814.059,0.158968,-0.0180108
70,1.38741,25116.91,0.159795,-0.00915393
70,1.38741,15847.683,0.161752,-0.002607728
70,1.38741,10002.226,0.163189,0.00275426
70,1.38741,6307.73,0.166286,0.006127103
70,1.38741,3981.27,0.169418,0.00859011
70,1.38742,2510.8,0.171864,0.0106387
70,1.38742,1585.51,0.176143,0.0125737
70,1.38742,1000.32,0.1799169,0.0143082
70,1.38742,631.01,0.183975,0.0158281
70,1.38742,398.089,0.188712,0.0187679
70,1.38742,251.044,0.1939037,0.0218352
70,1.387424,158.428,0.199365,0.02518926
70,1.38743,100.032,0.206767,0.0288111
70,1.38743,63.0823,0.213451,0.03456294
70,1.38743,39.8089,0.221404,0.0414267
70,1.38743,25.1044,0.231311,0.0515533
70,1.38743,15.8576,0.243384,0.0661359
70,1.38744,10.0032,0.259464,0.0869338
70,1.38744,6.31058,0.282805,0.113456
70,1.38744,3.97785,0.3190489,0.144453
70,1.38744,2.51367,0.3702747,0.174616
70,1.38745,1.58533,0.4333601,0.196142
70,1.38746,1.00006,0.500273,0.205112
70,1.38746,0.630905,0.562531,0.205336
70,1.38749,0.397745,0.6169951,0.201941
70,1.387513,0.251222,0.665427,0.200731
70,1.38757,0.158607,0.708256,0.202597
70,1.38765,0.10007,0.75105,0.211606
70,1.38792,79433.273,0.158633,-0.04397821
70,1.38785,50122.477,0.158223,-0.0253362
70,1.38781,31621.139,0.158499,-0.0132805
70,1.3878,19948.785,0.159302,-0.00534549
70,1.38778,12590.93,0.16166,0.0005871595
70,1.38778,7943.999,0.16419,0.00412743
70,1.38777,5011.604,0.1675605,0.00773627
70,1.38776,3161.01,0.170614,0.00958321
70,1.38776,1995.64,0.173406,0.0118117
70,1.38775,1258.79,0.177666,0.0134109
70,1.38775,794.238,0.181744,0.0159204
70,1.38775,501.444,0.186169,0.01763312
70,1.38774,316.316,0.191112,0.019461
70,1.38774,199.553,0.196811,0.0226651
70,1.38774,125.846,0.203021,0.0265188
70,1.387743,79.4155,0.209165,0.0315005
70,1.38774,50.1444,0.21657,0.0374769
70,1.38774,31.6296,0.225291,0.0453834
70,1.38774,19.9553,0.236089,0.05805626
70,1.38774,12.6008,0.2503,0.0753146
70,1.38774,7.93953,0.269423,0.0995179
70,1.38774,5.00801,0.299754,0.128235
70,1.38774,3.16296,0.34347,0.160008
70,1.38774,1.99553,0.401589,0.185944
70,1.38774,1.25967,0.4677871,0.2001541
70,1.38775,0.793631,0.533108,0.202686
70,1.38776,0.501541,0.591257,0.200662
70,1.38779,0.3161931,0.641503,0.197466
70,1.38781,0.199339,0.688177,0.201227
70,1.38786,0.125939,0.731168,0.206971
60,1.35445,100003.71,0.167989,-0.0542607
60,1.35446,63093.824,0.167765,-0.0325176
60,1.35446,39814.059,0.1678312,-0.0172765
60,1.35446,25116.91,0.169307,-0.00749907
60,1.35446,15847.683,0.1715186,0.000299265
60,1.35446,10002.226,0.17433,0.00484332
60,1.35446,6307.73,0.177949,0.00866051
60,1.35446,3981.27,0.182239,0.0117334
60,1.35446,2510.8,0.1859792,0.0133403
60,1.35446,1585.51,0.190315,0.0155469
60,1.35446,1000.32,0.1949591,0.0174581
60,1.35447,631.01,0.200445,0.0203993
60,1.35447,398.089,0.20645,0.02222194
60,1.35447,251.044,0.212434,0.0256866
60,1.35447,158.428,0.2193408,0.0290681
60,1.35447,100.032,0.228157,0.033337
60,1.35447,63.0823,0.236312,0.0389962
60,1.35447,39.8089,0.2464814,0.0458874
60,1.35448,25.1044,0.257743,0.0552686
60,1.35448,15.8576,0.270213,0.0676027
60,1.35448,10.0032,0.286273,0.08730494
60,1.35448,6.31058,0.306756,0.112281
60,1.35448,3.97785,0.337304,0.147264
60,1.35449,2.51367,0.383771,0.187909
60,1.35449,1.58533,0.449485,0.2276271
60,1.3545,1.00006,0.532183,0.256287
60,1.35452,0.630905,0.619729,0.265925
60,1.35453,0.397745,0.7008671,0.262749
60,1.35457,0.251222,0.76846,0.25329
60,1.3546,0.158607,0.827775,0.249346
60,1.35467,0.10007,0.8809359,0.248256
60,1.35449,79433.273,0.167841,-0.0429287
60,1.35457,50122.477,0.167281,-0.0245513
60,1.3546,31621.139,0.168706,-0.0115537
60,1.35461,19948.785,0.1707592,-0.00372011
60,1.35463,12590.93,0.173105,0.00258828
60,1.35464,7943.999,0.176156,0.00711247
60,1.35464,5011.604,0.1802,0.0101476
60,1.35465,3161.01,0.1836959,0.012602
60,1.35466,1995.64,0.188998,0.0139428
60,1.35466,1258.79,0.1927356,0.0165369
60,1.35466,794.238,0.1977,0.0184901
60,1.35467,501.444,0.203404,0.0214128
60,1.35467,316.316,0.209362,0.02426564
60,1.35467,199.553,0.215824,0.0272697
60,1.35468,125.846,0.223784,0.0309122
60,1.35468,79.4155,0.231186,0.0357862
60,1.35468,50.1444,0.2412308,0.04192163
60,1.35468,31.6296,0.2515686,0.05023
60,1.35469,19.9553,0.263425,0.0610431
60,1.35469,12.6008,0.277546,0.0765516
60,1.35469,7.93953,0.295125,0.09859541
60,1.35469,5.00801,0.319912,0.128933
60,1.3547,3.16296,0.357933,0.167232
60,1.35471,1.99553,0.4139541,0.209446
60,1.35471,1.25967,0.489912,0.24493
60,1.35472,0.793631,0.577963,0.264787
60,1.35473,0.501541,0.663093,0.267912
60,1.35477,0.3161931,0.738363,0.259797
60,1.3548,0.199339,0.801539,0.252665
60,1.35484,0.125939,0.857037,0.250759
50,1.33281,100003.71,0.17556,-0.0536358
50,1.33282,63093.824,0.1758458,-0.0316291
50,1.33282,39814.059,0.175452,-0.0154904
50,1.33282,25116.91,0.1774895,-0.00552516
50,1.33282,15847.683,0.180604,0.00195011
50,1.33282,10002.226,0.183636,0.00781289
50,1.33282,6307.73,0.188194,0.0119596
50,1.33282,3981.27,0.193353,0.0151337
50,1.33282,2510.8,0.198181,0.01806177
50,1.33282,1585.51,0.205214,0.0203204
50,1.33283,1000.32,0.210986,0.0225298
50,1.33283,631.01,0.217324,0.023983
50,1.33283,398.089,0.22502,0.0265801
50,1.33283,251.044,0.232455,0.0298617
50,1.33283,158.428,0.240472,0.0331656
50,1.33283,100.032,0.2499285,0.0377299
50,1.33284,63.0823,0.2597532,0.043324
50,1.33284,39.8089,0.271584,0.0508954
50,1.33284,25.1044,0.284481,0.0604645
50,1.33284,15.8576,0.299411,0.07215695
50,1.33284,10.0032,0.315646,0.0889822
50,1.33284,6.31058,0.33597,0.113068
50,1.33284,3.97785,0.3643711,0.147012
50,1.33284,2.51367,0.40578,0.191752
50,1.33285,1.58533,0.468428,0.242194
50,1.33286,1.00006,0.555452,0.288645
50,1.33288,0.630905,0.660734,0.316323
50,1.33289,0.397745,0.767512,0.320176
50,1.33293,0.251222,0.859956,0.308656
50,1.33296,0.158607,0.937513,0.296122
50,1.33304,0.10007,1.00358,0.2866984
50,1.33278,79433.273,0.175629,-0.0418498
50,1.33288,50122.477,0.175424,-0.0230337
50,1.33292,31621.139,0.1774312,-0.00981505
50,1.33294,19948.785,0.178961,-0.00150088
50,1.33296,12590.93,0.182876,0.005039005
50,1.33297,7943.999,0.185642,0.00946448
50,1.33298,5011.604,0.190756,0.0138641
50,1.33299,3161.01,0.196669,0.0170039
50,1.333,1995.64,0.201544,0.0196164
50,1.33301,1258.79,0.207695,0.0218385
50,1.33301,794.238,0.215565,0.0232563
50,1.33302,501.444,0.221097,0.0254888
50,1.333021,316.316,0.228646,0.0277724
50,1.33303,199.553,0.236431,0.0317771
50,1.33303,125.846,0.245263,0.0352324
50,1.33303,79.4155,0.25433,0.0407378
50,1.33304,50.1444,0.26626,0.0472129
50,1.33304,31.6296,0.2781,0.0544039
50,1.33304,19.9553,0.291669,0.0647479
50,1.33305,12.6008,0.3073,0.0800402
50,1.33305,7.93953,0.325557,0.0998086
50,1.33306,5.00801,0.348861,0.128545
50,1.33306,3.16296,0.382788,0.168257
50,1.33306,1.99553,0.4334654,0.217171
50,1.33307,1.25967,0.508561,0.267598
50,1.33308,0.793631,0.6075265,0.307603
50,1.33311,0.501541,0.716251,0.322855
50,1.33313,0.3161931,0.8180782,0.319713
50,1.33317,0.199339,0.9041644,0.305479
50,1.333239,0.125939,0.972779,0.2920924
40,1.30799,100003.71,0.2062065,-0.0545764
40,1.308,63093.824,0.205922,-0.0306923
40,1.308,39814.059,0.2063933,-0.0144868
40,1.308,25116.91,0.209017,-0.004465448
40,1.308,15847.683,0.211163,0.003804222
40,1.308,10002.226,0.2160308,0.0103433
40,1.308,6307.73,0.220737,0.0157025
40,1.308,3981.27,0.226956,0.0201458
40,1.30801,2510.8,0.2339808,0.0233015
40,1.30801,1585.51,0.241539,0.02602657
40,1.30801,1000.32,0.2504502,0.02923321
40,1.30801,631.01,0.259696,0.03154289
40,1.30801,398.089,0.269299,0.0334346
40,1.30802,251.044,0.279011,0.0357764
40,1.30802,158.428,0.288601,0.039044
40,1.308019,100.032,0.299266,0.0432287
40,1.30802,63.0823,0.311546,0.0490422
40,1.30802,39.8089,0.324053,0.0560661
40,1.30802,25.1044,0.338597,0.0651574
40,1.30802,15.8576,0.355313,0.0769877
40,1.30803,10.0032,0.37422,0.0920217
40,1.30803,6.31058,0.395084,0.115
40,1.30803,3.97785,0.421487,0.147847
40,1.30803,2.51367,0.458184,0.192736
40,1.30804,1.58533,0.513544,0.2522551
40,1.30805,1.00006,0.598315,0.318108
40,1.30806,0.630905,0.715493,0.373022
40,1.30809,0.397745,0.852669,0.398005
40,1.30811,0.251222,0.983214,0.393217
40,1.30817,0.158607,1.09306,0.370278
40,1.30826,0.10007,1.18074,0.34916
40,1.30845,79433.273,0.206413,-0.0409467
40,1.30837,50122.477,0.206342,-0.0219365
40,1.30834,31621.139,0.208219,-0.00910852
40,1.30833,19948.785,0.210659,3.664838e-05
40,1.30833,12590.93,0.213496,0.00686004
40,1.30832,7943.999,0.2187797,0.0131411
40,1.30832,5011.604,0.223934,0.0177303
40,1.30832,3161.01,0.230608,0.0218219
40,1.30831,1995.64,0.237958,0.0253494
40,1.30831,1258.79,0.2465101,0.02761477
40,1.30831,794.238,0.255156,0.0303072
40,1.30831,501.444,0.264626,0.03284083
40,1.30831,316.316,0.274168,0.0353247
40,1.30831,199.553,0.2841238,0.03748887
40,1.30831,125.846,0.294423,0.0412863
40,1.30831,79.4155,0.305481,0.04633742
40,1.30831,50.1444,0.317693,0.05214266
40,1.30832,31.6296,0.332208,0.0597362
40,1.30832,19.9553,0.347039,0.0707969
40,1.30832,12.6008,0.364931,0.0839273
40,1.30832,7.93953,0.3843383,0.103189
40,1.30831,5.00801,0.407652,0.13028
40,1.30832,3.16296,0.438945,0.168764
40,1.30833,1.99553,0.4832644,0.2217078
40,1.30834,1.25967,0.5528442,0.285171
40,1.30834,0.793631,0.6552275,0.348618
40,1.30835,0.501541,0.7844503,0.391204
40,1.30838,0.3161931,0.921977,0.399362
40,1.30841,0.199339,1.04305,0.3844651
40,1.30846,0.125939,1.14209,0.363296
30,1.27097,100003.71,0.266151,-0.0524293
30,1.27098,63093.824,0.266482,-0.02849777
30,1.27098,39814.059,0.2684332,-0.0124999
30,1.27098,25116.91,0.2706024,-0.00061555
30,1.27098,15847.683,0.274548,0.007670346
30,1.27099,10002.226,0.280591,0.0143828
30,1.27099,6307.73,0.2865274,0.0201234
30,1.27099,3981.27,0.295144,0.0245913
30,1.27099,2510.8,0.30301,0.02823517
30,1.27099,1585.51,0.312858,0.0312693
30,1.27099,1000.32,0.32216,0.0327527
30,1.27099,631.01,0.332537,0.0342822
30,1.271,398.089,0.342284,0.0358361
30,1.270998,251.044,0.3526882,0.0376695
30,1.271,158.428,0.3626794,0.04058171
30,1.271,100.032,0.3742013,0.0448667
30,1.271,63.0823,0.385801,0.0506839
30,1.27101,39.8089,0.399696,0.0584269
30,1.27101,25.1044,0.415264,0.0680296
30,1.27101,15.8576,0.432253,0.0802491
30,1.271,10.0032,0.45222,0.0960997
30,1.27101,6.31058,0.475176,0.117631
30,1.27101,3.97785,0.5012666,0.148298
30,1.27101,2.51367,0.534092,0.193011
30,1.27102,1.58533,0.5822614,0.256115
30,1.27103,1.00006,0.657058,0.336846
30,1.27104,0.630905,0.772199,0.425799
30,1.27108,0.397745,0.93332,0.495505
30,1.27111,0.251222,1.11563,0.521437
30,1.27115,0.158607,1.28473,0.504523
30,1.27125,0.10007,1.42366,0.469751
30,1.27089,79433.273,0.265615,-0.0396026
30,1.27103,50122.477,0.2665172,-0.0200041
30,1.27108,31621.139,0.268508,-0.00622192
30,1.27111,19948.785,0.272175,0.0038372
30,1.27114,12590.93,0.277438,0.0111877
30,1.27115,7943.999,0.282839,0.0169372
30,1.27117,5011.604,0.290563,0.0220859
30,1.27118,3161.01,0.298711,0.0260855
30,1.27119,1995.64,0.30748,0.0296682
30,1.27119,1258.79,0.317171,0.0320305
30,1.2712,794.238,0.327239,0.03332227
30,1.27121,501.444,0.336781,0.0350096
30,1.27121,316.316,0.346987,0.0362099
30,1.27122,199.553,0.3575422,0.0394055
30,1.27122,125.846,0.367647,0.042476
30,1.27123,79.4155,0.379582,0.0481008
30,1.27123,50.1444,0.392131,0.0539368
30,1.271233,31.6296,0.406612,0.062595
30,1.27124,19.9553,0.422911,0.0740796
30,1.27124,12.6008,0.442117,0.0871781
30,1.27125,7.93953,0.463617,0.105806
30,1.27126,5.00801,0.487036,0.131657
30,1.27125,3.16296,0.515947,0.1681102
30,1.27125,1.99553,0.554807,0.2217701
30,1.27127,1.25967,0.61428,0.294141
30,1.27129,0.793631,0.709368,0.382423
30,1.271312,0.501541,0.84819,0.465621
30,1.27134,0.3161931,1.023755,0.517817
30,1.271379,0.199339,1.20521,0.5215209
30,1.27146,0.125939,1.36022,0.492285
20,1.21006,100003.71,0.385863,-0.0500992
20,1.21006,63093.824,0.387432,-0.0255797
20,1.21007,39814.059,0.390075,-0.00892376
20,1.21007,25116.91,0.395693,0.00257202
20,1.21007,15847.683,0.4011776,0.00990653
20,1.21007,10002.226,0.407762,0.015549
20,1.21007,6307.73,0.415032,0.0187945
20,1.21007,3981.27,0.421853,0.02044833
20,1.21008,2510.8,0.428466,0.0211097
20,1.21008,1585.51,0.434614,0.021979
20,1.21008,1000.32,0.440421,0.0226991
20,1.21008,631.01,0.447345,0.02488565
20,1.21008,398.089,0.453401,0.02781779
20,1.21009,251.044,0.461244,0.03217264
20,1.21009,158.428,0.469967,0.0371235
20,1.21009,100.032,0.479649,0.0440667
20,1.21009,63.0823,0.491845,0.0527393
20,1.21009,39.8089,0.506321,0.0629777
20,1.2101,25.1044,0.52376,0.07502297
20,1.2101,15.8576,0.543444,0.0895947
20,1.21009,10.0032,0.56714,0.107713
20,1.21009,6.31058,0.593498,0.130248
20,1.21011,3.97785,0.6242623,0.161017
20,1.21011,2.51367,0.657939,0.203581
20,1.21012,1.58533,0.699581,0.266407
20,1.21012,1.00006,0.756949,0.358295
20,1.21015,0.630905,0.847519,0.486445
20,1.21017,0.397745,0.996613,0.645606
20,1.21022,0.251222,1.22757,0.803429
20,1.21026,0.158607,1.5343,0.907256
20,1.21036,0.10007,1.86314,0.915658
20,1.20951,79433.273,0.386175,-0.036741
20,1.20995,50122.477,0.388775,-0.0158924
20,1.2101,31621.139,0.3933332,-0.003789405
20,1.210169,19948.785,0.397985,0.00650426
20,1.21022,12590.93,0.404416,0.0126688
20,1.21024,7943.999,0.411423,0.0173819
20,1.21026,5011.604,0.418683,0.019607
20,1.21028,3161.01,0.425365,0.0208773
20,1.2103,1995.64,0.431663,0.0218156
20,1.21031,1258.79,0.437854,0.0222154
20,1.21032,794.238,0.443737,0.0236058
20,1.21033,501.444,0.4498121,0.0258677
20,1.21033,316.316,0.4568555,0.0298425
20,1.21034,199.553,0.465247,0.0348557
20,1.21035,125.846,0.474073,0.0406707
20,1.21035,79.4155,0.485056,0.0477042
20,1.21036,50.1444,0.498432,0.0574508
20,1.21036,31.6296,0.51466,0.0681124
20,1.21037,19.9553,0.53293,0.08101205
20,1.21037,12.6008,0.554427,0.098052
20,1.21038,7.93953,0.579712,0.118701
20,1.21037,5.00801,0.608185,0.144836
20,1.21037,3.16296,0.640176,0.180119
20,1.2104,1.99553,0.677331,0.2321046
20,1.2104,1.25967,0.724844,0.3092559
20,1.21044,0.793631,0.796575,0.418406
20,1.21044,0.501541,0.912196,0.563074
20,1.2105,0.3161931,1.09965,0.728902
20,1.21053,0.199339,1.37222,0.872289
20,1.21061,0.125939,1.70215,0.929996
10,1.1427,100003.71,0.713956,-0.04434831
10,1.1427,63093.824,0.717527,-0.0172717
10,1.14271,39814.059,0.72245,0.000623701
10,1.14271,25116.91,0.7297012,0.0145414
10,1.14271,15847.683,0.738148,0.0254775
10,1.14271,10002.226,0.748522,0.0353143
10,1.14271,6307.73,0.759966,0.0447707
10,1.14271,3981.27,0.774285,0.0541482
10,1.14271,2510.8,0.790166,0.0642724
10,1.14271,1585.51,0.809704,0.0765246
10,1.14271,1000.32,0.8319397,0.0888077
10,1.14272,631.01,0.858804,0.105366
10,1.14272,398.089,0.890709,0.122014
10,1.14272,251.044,0.930632,0.139478
10,1.14272,158.428,0.976944,0.154015
10,1.14272,100.032,1.02967,0.165078
10,1.14272,63.0823,1.08366,0.168252
10,1.14273,39.8089,1.13513,0.167465
10,1.14273,25.1044,1.1818,0.166701
10,1.14273,15.8576,1.22533,0.168737
10,1.14272,10.0032,1.26851,0.178436
10,1.14272,6.31058,1.31342,0.19482
10,1.14273,3.97785,1.36065,0.22054
10,1.1427,2.51367,1.41021,0.257579
10,1.14275,1.58533,1.46372,0.314485
10,1.14274,1.00006,1.524055,0.40196
10,1.14275,0.630905,1.60118,0.535987
10,1.14279,0.397745,1.717581,0.732543
10,1.14279,0.251222,1.91296,0.9959751
10,1.14278,0.158607,2.24249,1.29813
10,1.14284,0.10007,2.75103,1.54481
10,1.14092,79433.273,0.715401,-0.0295668
10,1.14171,50122.477,0.720638,-0.00723821
10,1.14209,31621.139,0.726144,0.007768256
10,1.14231,19948.785,0.7338589,0.020872
10,1.14243,12590.93,0.742877,0.0304772
10,1.14252,7943.999,0.753635,0.0401823
10,1.14259,5011.604,0.767193,0.0487994
10,1.14264,3161.01,0.781319,0.059387
10,1.14267,1995.64,0.799487,0.0699038
10,1.1427,1258.79,0.820241,0.0824264
10,1.14273,794.238,0.845085,0.0973066
10,1.14275,501.444,0.8732291,0.112841
10,1.14276,316.316,0.909465,0.13062
10,1.14278,199.553,0.9527684,0.14765
10,1.14279,125.846,1.00297,0.160061
10,1.1428,79.4155,1.05639,0.167585
10,1.14281,50.1444,1.11015,0.168418
10,1.14282,31.6296,1.15929,0.166466
10,1.14283,19.9553,1.20422,0.167514
10,1.14284,12.6008,1.24749,0.173335
10,1.14284,7.93953,1.2913,0.185977
10,1.14283,5.00801,1.33744,0.207077
10,1.14288,3.16296,1.38565,0.237131
10,1.14291,1.99553,1.43692,0.283219
10,1.14292,1.25967,1.49265,0.353579
10,1.14292,0.793631,1.56059,0.463313
10,1.14293,0.501541,1.65319,0.626216
10,1.14297,0.3161931,1.80432,0.8574485
10,1.14302,0.199339,2.06088,1.14841
10,1.14302,0.125939,2.47186,1.44791
0,0.978491,100003.71,0.936322,-0.0366018
0,0.978495,63093.824,0.9420549,-0.00873075
0,0.978497,39814.059,0.950138,0.0119855
0,0.978499,25116.91,0.9598399,0.0268756
0,0.978503,15847.683,0.971738,0.040618
0,0.978505,10002.226,0.98548,0.053528
0,0.978507,6307.73,1.0023,0.0672064
0,0.978513,3981.27,1.02216,0.0807909
0,0.978517,2510.8,1.04544,0.0980861
0,0.9785192,1585.51,1.07289,0.116852
0,0.978524,1000.32,1.10618,0.139563
0,0.978528,631.01,1.14624,0.167032
0,0.978531,398.089,1.19298,0.199433
0,0.978536,251.044,1.25146,0.2385
0,0.9785405,158.428,1.32312,0.282492
0,0.978546,100.032,1.41019,0.331262
0,0.9785529,63.0823,1.51766,0.379336
0,0.978567,39.8089,1.6422,0.4224683
0,0.978576,25.1044,1.77756,0.454765
0,0.978559,15.8576,1.91564,0.48128
0,0.978561,10.0032,2.04916,0.507752
0,0.97858,6.31058,2.17473,0.545816
0,0.9785564,3.97785,2.28936,0.612908
0,0.978457,2.51367,2.39319,0.736619
0,0.978647,1.58533,2.5039,0.9588507
0,0.978648,1.00006,2.65397,1.32181
0,0.978542,0.630905,2.89219,1.872008
0,0.978759,0.397745,3.32408,2.65987
0,0.9786249,0.251222,4.0893,3.679382
0,0.978639,0.158607,5.35725,4.79207
0,0.97876,0.10007,7.16048,5.77192
0,0.975983,79433.273,0.9389371,-0.0210157
0,0.976896,50122.477,0.945207,0.00276538
0,0.977442,31621.139,0.95434,0.019689
0,0.977813,19948.785,0.964514,0.0342034
0,0.978055,12590.93,0.978459,0.0470136
0,0.978238,7943.999,0.993866,0.05912889
0,0.978385,5011.604,1.01197,0.0735633
0,0.978506,3161.01,1.03337,0.0893169
0,0.978605,1995.64,1.05943,0.106526
0,0.978683,1258.79,1.08937,0.127794
0,0.978752,794.238,1.12521,0.152623
0,0.978806,501.444,1.168365,0.182999
0,0.978856,316.316,1.22136,0.218562
0,0.978898,199.553,1.28504,0.259894
0,0.978934,125.846,1.36521,0.3065418
0,0.978971,79.4155,1.46219,0.355659
0,0.978991,50.1444,1.57825,0.40202
0,0.9790194,31.6296,1.70986,0.440201
0,0.979057,19.9553,1.84702,0.4686873
0,0.979084,12.6008,1.9837,0.493989
0,0.97906,7.93953,2.11433,0.523825
0,0.979106,5.00801,2.23462,0.574331
0,0.979235,3.16296,2.34228,0.665313
0,0.979249,1.99553,2.44796,0.8338035
0,0.9793044,1.25967,2.57157,1.11964
0,0.979222,0.793631,2.76124,1.56908
0,0.97933,0.501541,3.08279,2.2348
0,0.979289,0.3161931,3.65886,3.14031
0,0.9794608,0.199339,4.65323,4.23982
0,0.979352,0.125939,6.18941,5.342392
0,0.979312,0.10007,7.142198,5.80382